PacketCounter, SampleTimeFine, Acc_X, Acc_Y, Acc_Z, FreeAcc_X, FreeAcc_Y, FreeAcc_Z, Gyr_X, Gyr_Y, Gyr_Z, Mag_X, Mag_Y, Mag_Z, VelInc_X, VelInc_Y, VelInc_Z, OriInc_q0, OriInc_q1, OriInc_q2, OriInc_q3, Roll, Pitch, Yaw, Latitude, Longitude, Altitude, Vel_X, Vel_Y, Vel_Z
28373, , 9.529261, 1.992277, 1.188112, 0.062398, 0.246498, -0.008457, 0.021300, -0.024459, -0.004013, -0.833740, 0.231934, -0.069336, 0.095292, 0.019920, 0.011895, 1.000000, 0.000107, -0.000122, -0.000020, 64.197335, -77.280460, -156.470371, , , 0.000000, , , 
28374, , 9.794500, 2.153204, 1.371766, 0.171370, 0.400380, 0.299710, 0.023469, -0.012988, -0.002444, -0.840820, 0.238525, -0.071777, 0.097944, 0.021529, 0.013727, 1.000000, 0.000117, -0.000065, -0.000012, 64.242781, -77.282247, -156.503162, , , 0.000000, , , 
28375, , 9.709814, 2.222245, 1.105765, 0.247451, 0.140461, 0.205327, -0.002401, 0.005066, -0.009614, -0.845459, 0.236328, -0.067383, 0.097099, 0.022218, 0.011055, 1.000000, -0.000012, 0.000025, -0.000048, 64.240428, -77.276025, -156.502161, , , 0.000000, , , 
28376, , 9.840720, 1.939491, 1.241006, -0.052612, 0.276355, 0.289904, -0.000512, 0.008540, -0.004641, -0.833740, 0.232178, -0.073730, 0.098408, 0.019393, 0.012406, 1.000000, -0.000003, 0.000043, -0.000023, 64.223507, -77.270641, -156.485226, , , 0.000000, , , 
28377, , 9.530202, 1.938678, 0.961390, 0.000285, 0.024058, -0.039923, -0.003986, 0.020555, -0.009614, -0.833740, 0.234131, -0.076172, 0.095304, 0.019382, 0.009604, 1.000000, -0.000020, 0.000103, -0.000048, 64.184910, -77.260557, -156.447997, , , 0.000000, , , 
28378, , 9.557344, 1.800082, 0.960827, -0.142124, 0.026111, -0.041023, 0.012677, 0.011819, -0.011837, -0.835938, 0.229736, -0.069336, 0.095575, 0.017995, 0.009604, 1.000000, 0.000063, 0.000059, -0.000059, 64.172888, -77.250502, -156.428495, , , 0.000000, , , 
28379, , 9.571842, 1.879284, 1.084890, -0.065166, 0.143534, 0.000773, 0.030925, 0.016410, -0.009112, -0.833740, 0.231934, -0.067383, 0.095720, 0.018787, 0.010844, 1.000000, 0.000155, 0.000082, -0.000046, 64.163268, -77.241706, -156.400465, , , 0.000000, , , 
28380, , 9.572121, 2.067671, 1.492900, 0.129107, 0.536636, 0.077958, 0.026799, 0.067691, -0.020530, -0.833740, 0.229980, -0.069336, 0.095728, 0.020665, 0.014899, 1.000000, 0.000134, 0.000338, -0.000103, 64.038441, -77.213622, -156.257176, , , 0.000000, , , 
28381, , 9.240635, 1.957348, 0.942958, 0.069324, 0.017102, -0.320343, -0.013119, 0.089858, -0.033586, -0.833740, 0.227783, -0.078125, 0.092414, 0.019559, 0.009387, 1.000000, -0.000066, 0.000449, -0.000168, 63.864612, -77.173725, -156.086621, , , 0.000000, , , 
28382, , 9.311831, 1.984103, 0.867239, 0.075636, -0.072728, -0.252983, 0.003417, 0.040674, -0.027634, -0.831543, 0.234375, -0.071777, 0.093123, 0.019828, 0.008654, 1.000000, 0.000017, 0.000203, -0.000138, 63.788434, -77.146911, -156.007347, , , 0.000000, , , 
28383, , 9.503842, 1.958105, 1.068787, 0.014204, 0.108875, -0.051159, 0.019127, 0.024288, -0.023882, -0.836182, 0.238525, -0.073975, 0.095042, 0.019569, 0.010678, 1.000000, 0.000096, 0.000121, -0.000119, 63.771194, -77.128487, -155.978423, , , 0.000000, , , 
28384, , 9.602726, 2.017546, 1.167336, 0.052182, 0.193362, 0.066858, 0.020535, 0.005772, -0.025535, -0.836182, 0.236328, -0.078369, 0.096030, 0.020162, 0.011673, 1.000000, 0.000103, 0.000029, -0.000128, 63.781786, -77.111122, -155.978061, , , 0.000000, , , 
28385, , 9.672554, 2.038414, 1.176206, 0.055836, 0.195382, 0.139981, 0.038888, -0.002514, -0.024424, -0.838379, 0.227539, -0.073730, 0.096728, 0.020370, 0.011767, 1.000000, 0.000194, -0.000013, -0.000122, 63.836691, -77.099201, -156.011529, , , 0.000000, , , 
28386, , 9.513972, 2.023977, 1.058890, 0.067802, 0.094119, -0.029030, 0.031412, -0.012338, -0.024134, -0.835938, 0.227783, -0.071533, 0.095142, 0.020227, 0.010598, 1.000000, 0.000157, -0.000062, -0.000121, 63.884594, -77.085661, -156.043463, , , 0.000000, , , 
28387, , 9.641338, 1.951212, 1.263948, -0.026309, 0.292357, 0.100638, 0.024634, -0.024218, -0.023435, -0.835938, 0.229980, -0.073730, 0.096414, 0.019499, 0.012654, 1.000000, 0.000123, -0.000121, -0.000117, 63.978781, -77.079697, -156.125615, , , 0.000000, , , 
28388, , 9.483897, 2.045395, 0.988850, 0.087648, 0.029797, -0.060908, 0.012791, -0.024743, -0.027248, -0.838379, 0.231934, -0.073730, 0.094841, 0.020440, 0.009902, 1.000000, 0.000064, -0.000124, -0.000136, 64.037739, -77.066475, -156.180330, , , 0.000000, , , 
28389, , 9.562645, 1.884950, 0.963700, -0.088903, 0.008704, -0.018917, 0.017351, -0.041983, -0.029846, -0.835938, 0.229980, -0.082520, 0.095627, 0.018834, 0.009659, 1.000000, 0.000087, -0.000210, -0.000149, 64.174405, -77.061595, -156.310354, , , 0.000000, , , 
28390, , 9.552920, 1.898211, 1.012183, -0.075775, 0.060021, -0.021025, 0.025324, -0.038978, -0.028450, -0.835938, 0.229736, -0.069336, 0.095530, 0.018967, 0.010143, 1.000000, 0.000127, -0.000195, -0.000142, 64.273317, -77.051332, -156.398678, , , 0.000000, , , 
28391, , 9.557158, 1.919701, 0.937425, -0.060193, -0.011536, -0.019857, 0.043755, -0.033050, -0.021111, -0.836182, 0.231934, -0.073730, 0.095572, 0.019185, 0.009394, 1.000000, 0.000219, -0.000165, -0.000106, 64.395390, -77.048631, -156.498213, , , 0.000000, , , 
28392, , 9.512113, 2.150553, 1.083610, 0.176389, 0.130367, -0.002933, 0.059923, -0.038404, -0.019116, -0.833740, 0.236328, -0.069580, 0.095121, 0.021493, 0.010861, 1.000000, 0.000300, -0.000192, -0.000096, 64.500952, -77.044011, -156.573193, , , 0.000000, , , 
28393, , 9.675320, 2.196788, 1.235736, 0.189772, 0.269516, 0.180114, 0.017922, -0.034619, -0.021904, -0.835938, 0.229736, -0.071533, 0.096753, 0.021956, 0.012376, 1.000000, 0.000090, -0.000173, -0.000110, 64.612503, -77.041201, -156.677122, , , 0.000000, , , 
28394, , 9.555802, 2.091971, 0.994807, 0.103065, 0.046219, 0.019229, -0.013611, -0.027902, -0.018744, -0.838379, 0.229736, -0.073730, 0.095559, 0.020911, 0.009960, 1.000000, -0.000068, -0.000140, -0.000094, 64.645263, -77.030290, -156.720915, , , 0.000000, , , 
28395, , 9.521195, 1.919633, 1.019521, -0.059102, 0.084816, -0.047091, 0.001607, -0.039181, -0.013742, -0.835938, 0.229736, -0.069336, 0.095211, 0.019190, 0.010214, 1.000000, 0.000008, -0.000196, -0.000069, 64.748929, -77.032771, -156.826351, , , 0.000000, , , 
28396, , 9.509033, 1.973404, 1.071154, -0.004506, 0.136372, -0.043103, 0.011154, -0.035525, -0.012834, -0.836182, 0.234131, -0.071777, 0.095090, 0.019727, 0.010730, 1.000000, 0.000056, -0.000178, -0.000064, 64.803200, -77.026046, -156.877876, , , 0.000000, , , 
28397, , 9.448203, 1.946404, 1.005792, -0.021579, 0.081556, -0.114155, 0.005401, -0.036535, -0.020208, -0.829102, 0.236572, -0.069580, 0.094482, 0.019454, 0.010076, 1.000000, 0.000027, -0.000183, -0.000101, 64.909897, -77.024460, -156.984193, , , 0.000000, , , 
28398, , 9.607906, 1.918597, 1.205889, -0.078986, 0.269482, 0.054844, 0.023326, -0.036480, -0.020002, -0.838379, 0.234131, -0.071777, 0.096079, 0.019175, 0.012079, 1.000000, 0.000117, -0.000182, -0.000100, 64.977787, -77.015049, -157.042485, , , 0.000000, , , 
28399, , 9.801634, 2.120174, 1.401903, 0.080944, 0.441441, 0.303195, 0.022763, -0.013534, -0.022213, -0.833740, 0.229980, -0.067139, 0.098018, 0.021189, 0.014028, 1.000000, 0.000114, -0.000068, -0.000111, 65.044586, -77.006801, -157.097656, , , 0.000000, , , 
28400, , 9.553584, 2.324072, 1.068606, 0.319951, 0.120069, 0.071513, -0.043884, -0.015057, -0.032463, -0.835938, 0.227539, -0.067139, 0.095539, 0.023228, 0.010688, 1.000000, -0.000219, -0.000075, -0.000162, 65.011675, -76.982744, -157.093562, , , 0.000000, , , 
28401, , 9.641014, 2.037233, 1.038134, 0.017864, 0.096301, 0.095269, -0.062681, -0.032261, -0.034235, -0.838379, 0.231934, -0.069580, 0.096412, 0.020359, 0.010391, 1.000000, -0.000313, -0.000161, -0.000171, 65.083984, -76.972771, -157.204645, , , 0.000000, , , 
28402, , 9.566684, 1.947462, 1.075206, -0.057157, 0.141899, 0.008041, -0.045061, -0.024056, -0.031121, -0.835938, 0.229736, -0.071533, 0.095669, 0.019462, 0.010759, 1.000000, -0.000225, -0.000120, -0.000156, 65.069664, -76.948044, -157.220579, , , 0.000000, , , 
28403, , 9.556101, 1.952911, 1.014709, -0.053783, 0.084105, -0.006945, -0.012140, -0.022152, -0.028101, -0.835938, 0.229736, -0.071533, 0.095563, 0.019516, 0.010156, 1.000000, -0.000061, -0.000111, -0.000141, 65.141589, -76.938792, -157.301556, , , 0.000000, , , 
28404, , 9.456646, 2.131751, 1.028663, 0.138819, 0.096630, -0.065787, 0.007465, -0.019908, -0.027554, -0.835938, 0.229736, -0.071533, 0.094568, 0.021304, 0.010297, 1.000000, 0.000037, -0.000100, -0.000138, 65.137659, -76.916612, -157.297249, , , 0.000000, , , 
28405, , 9.489502, 2.138529, 1.224445, 0.141520, 0.289551, -0.013741, -0.026366, -0.010108, -0.027224, -0.838379, 0.227539, -0.064941, 0.094897, 0.021374, 0.012246, 1.000000, -0.000132, -0.000051, -0.000136, 65.173311, -76.904893, -157.349362, , , 0.000000, , , 
28406, , 9.340881, 1.947317, 0.988500, -0.024841, 0.071620, -0.220217, -0.061405, 0.015221, -0.037028, -0.833740, 0.229980, -0.073730, 0.093413, 0.019459, 0.009872, 1.000000, -0.000307, 0.000076, -0.000185, 65.056627, -76.865548, -157.270538, , , 0.000000, , , 
28407, , 9.369320, 1.980587, 0.763656, -0.007736, -0.157698, -0.207214, -0.056124, -0.005814, -0.036294, -0.835938, 0.229736, -0.069336, 0.093697, 0.019791, 0.007634, 1.000000, -0.000281, -0.000029, -0.000181, 65.074946, -76.848092, -157.322371, , , 0.000000, , , 
28408, , 9.542198, 1.962122, 0.844111, -0.063478, -0.095746, -0.035020, -0.042681, -0.006336, -0.030039, -0.838379, 0.231934, -0.067383, 0.095425, 0.019609, 0.008440, 1.000000, -0.000213, -0.000032, -0.000150, 65.021428, -76.821111, -157.296086, , , 0.000000, , , 
28409, , 9.846209, 2.108190, 1.152631, 0.021697, 0.177580, 0.320863, -0.020296, -0.010579, -0.030829, -0.835938, 0.227783, -0.069336, 0.098465, 0.021068, 0.011529, 1.000000, -0.000101, -0.000053, -0.000154, 65.064984, -76.807648, -157.352761, , , 0.000000, , , 
28410, , 9.994480, 2.247565, 1.165222, 0.123769, 0.165387, 0.495380, -0.055341, 0.017322, -0.021248, -0.835938, 0.227783, -0.069336, 0.099948, 0.022468, 0.011637, 1.000000, -0.000277, 0.000087, -0.000106, 64.942745, -76.779305, -157.263119, , , 0.000000, , , 
28411, , 9.666206, 2.215889, 0.879346, 0.151947, -0.091444, 0.141583, -0.073278, 0.015480, -0.018502, -0.838379, 0.229736, -0.069336, 0.096665, 0.022153, 0.008778, 1.000000, -0.000366, 0.000077, -0.000093, 64.885619, -76.765943, -157.247563, , , 0.000000, , , 
28412, , 9.593433, 2.076046, 1.009194, 0.032189, 0.044728, 0.054397, -0.058188, 0.018851, -0.014842, -0.835938, 0.225586, -0.067139, 0.095937, 0.020756, 0.010077, 1.000000, -0.000291, 0.000094, -0.000074, 64.758346, -76.738761, -157.154222, , , 0.000000, , , 
28413, , 9.548403, 1.960542, 1.003968, -0.071885, 0.046154, -0.013892, -0.052835, 0.026477, -0.005366, -0.838379, 0.231934, -0.069580, 0.095486, 0.019606, 0.010022, 1.000000, -0.000264, 0.000132, -0.000027, 64.675353, -76.729499, -157.100051, , , 0.000000, , , 
28414, , 9.486821, 2.048882, 1.103909, 0.029298, 0.139757, -0.045604, -0.014156, 0.032917, -0.000848, -0.838135, 0.223389, -0.066895, 0.094870, 0.020489, 0.011022, 1.000000, -0.000071, 0.000165, -0.000004, 64.531586, -76.707266, -156.963942, , , 0.000000, , , 
28415, , 9.524200, 2.140304, 1.481788, 0.122309, 0.502699, 0.047298, -0.029709, 0.057235, -0.007949, -0.835938, 0.225586, -0.069336, 0.095247, 0.021401, 0.014787, 1.000000, -0.000149, 0.000286, -0.000040, 64.397608, -76.689019, -156.843758, , , 0.000000, , , 
28416, , 9.264637, 1.956738, 1.435582, -0.006748, 0.475501, -0.247278, -0.096601, 0.136392, -0.034486, -0.833740, 0.227783, -0.073730, 0.092660, 0.019558, 0.014283, 1.000000, -0.000483, 0.000682, -0.000172, 64.002678, -76.619623, -156.501905, , , 0.000000, , , 
28417, , 8.999163, 1.892882, 0.678150, -0.040742, -0.260868, -0.595415, -0.039230, 0.078483, -0.038019, -0.838379, 0.227539, -0.071533, 0.089998, 0.018913, 0.006742, 1.000000, -0.000196, 0.000392, -0.000190, 63.850840, -76.580263, -156.368920, , , 0.000000, , , 
28418, , 9.589302, 2.089933, 0.958893, 0.031255, -0.057738, 0.048230, -0.075152, 0.039447, -0.033383, -0.835938, 0.227783, -0.069336, 0.095898, 0.020887, 0.009562, 1.000000, -0.000376, 0.000197, -0.000167, 63.676687, -76.538521, -156.238120, , , 0.000000, , , 
28419, , 9.586753, 2.024475, 0.919174, -0.036219, -0.097664, 0.027961, -0.046034, 0.024568, -0.030117, -0.835938, 0.227539, -0.067139, 0.095872, 0.020232, 0.009175, 1.000000, -0.000230, 0.000123, -0.000151, 63.629543, -76.516771, -156.216755, , , 0.000000, , , 
28420, , 9.609890, 2.211053, 0.948526, 0.138278, -0.086701, 0.092453, -0.053679, 0.011655, -0.031537, -0.831299, 0.223389, -0.073486, 0.096103, 0.022098, 0.009474, 1.000000, -0.000268, 0.000058, -0.000158, 63.548904, -76.485111, -156.170395, , , 0.000000, , , 
28421, , 9.621604, 2.044815, 0.938740, -0.029065, -0.090098, 0.068042, -0.058426, 0.003007, -0.022106, -0.833496, 0.221191, -0.073486, 0.096218, 0.020440, 0.009380, 1.000000, -0.000292, 0.000015, -0.000111, 63.532486, -76.472983, -156.187937, , , 0.000000, , , 
28422, , 9.569926, 1.959362, 1.115453, -0.097690, 0.092067, 0.018324, -0.030502, -0.004696, -0.017960, -0.838135, 0.223145, -0.064697, 0.095701, 0.019587, 0.011154, 1.000000, -0.000153, -0.000023, -0.000090, 63.498102, -76.454415, -156.178008, , , 0.000000, , , 
28423, , 9.427801, 1.855589, 1.051962, -0.172247, 0.048934, -0.148258, -0.017780, -0.017323, -0.018368, -0.833740, 0.225586, -0.071533, 0.094279, 0.018548, 0.010526, 1.000000, -0.000089, -0.000087, -0.000092, 63.544219, -76.449351, -156.235912, , , 0.000000, , , 
28424, , 9.438609, 1.756506, 1.488246, -0.258232, 0.486426, -0.112984, 0.044253, -0.012246, -0.015350, -0.833740, 0.229980, -0.069336, 0.094387, 0.017555, 0.014892, 1.000000, 0.000221, -0.000061, -0.000077, 63.562762, -76.434552, -156.235271, , , 0.000000, , , 
28425, , 8.939539, 2.055530, 1.386358, 0.134105, 0.416958, -0.546042, 0.118467, 0.016287, -0.027097, -0.843018, 0.227539, -0.073730, 0.089399, 0.020535, 0.013868, 1.000000, 0.000592, 0.000081, -0.000135, 63.624724, -76.416423, -156.229180, , , 0.000000, , , 
28426, , 8.923661, 2.386326, 1.353226, 0.455066, 0.367004, -0.495192, 0.084432, -0.044480, -0.032223, -0.838379, 0.225342, -0.069336, 0.089237, 0.023843, 0.013562, 1.000000, 0.000422, -0.000222, -0.000161, 63.712256, -76.400395, -156.270686, , , 0.000000, , , 
28427, , 9.402895, 2.224273, 1.397978, 0.191578, 0.381051, -0.059008, -0.005676, -0.062562, -0.041421, -0.831299, 0.229980, -0.071533, 0.094029, 0.022224, 0.014009, 1.000000, -0.000028, -0.000313, -0.000207, 63.885241, -76.394877, -156.452005, , , 0.000000, , , 
28428, , 9.935664, 2.278092, 1.242667, 0.119792, 0.175441, 0.454066, -0.026779, -0.065769, -0.037764, -0.838135, 0.221191, -0.071289, 0.099357, 0.022764, 0.012456, 1.000000, -0.000134, -0.000329, -0.000189, 63.965814, -76.378186, -156.554945, , , 0.000000, , , 
28429, , 10.081356, 2.276160, 0.848461, 0.070396, -0.225714, 0.554502, -0.081709, -0.041904, -0.029626, -0.838135, 0.223389, -0.071289, 0.100815, 0.022750, 0.008496, 1.000000, -0.000409, -0.000210, -0.000148, 64.038666, -76.373436, -156.678075, , , 0.000000, , , 
28430, , 10.119006, 2.067111, 0.860428, -0.144506, -0.210244, 0.547934, -0.101973, 0.002132, -0.014666, -0.838379, 0.229736, -0.069336, 0.101192, 0.020668, 0.008593, 1.000000, -0.000510, 0.000011, -0.000073, 63.905499, -76.346260, -156.606511, , , 0.000000, , , 
28431, , 9.796985, 1.937870, 0.345554, -0.219777, -0.688682, 0.153911, -0.042289, 0.054928, -0.002396, -0.835938, 0.223389, -0.069092, 0.097971, 0.019378, 0.003425, 1.000000, -0.000211, 0.000275, -0.000012, 63.767465, -76.331086, -156.489381, , , 0.000000, , , 
28432, , 9.884106, 2.107551, 0.439474, -0.069714, -0.623711, 0.283677, 0.026189, 0.103574, 0.020567, -0.831299, 0.223389, -0.069092, 0.098841, 0.021085, 0.004346, 1.000000, 0.000131, 0.000518, 0.000103, 63.494818, -76.306796, -156.194115, , , 0.000000, , , 
28433, , 9.778218, 2.193135, 0.494674, 0.040719, -0.575484, 0.204060, 0.053731, 0.153480, 0.034770, -0.833496, 0.221191, -0.080078, 0.097782, 0.021947, 0.004878, 1.000000, 0.000269, 0.000767, 0.000174, 63.166541, -76.285088, -155.824522, , , 0.000000, , , 
28434, , 9.772584, 2.102146, 0.536579, -0.042758, -0.544224, 0.182927, 0.046045, 0.186515, 0.046317, -0.840576, 0.223145, -0.071289, 0.097726, 0.021043, 0.005279, 1.000000, 0.000230, 0.000933, 0.000232, 62.748200, -76.256917, -155.370788, , , 0.000000, , , 
28435, , 9.722919, 2.017196, 0.640192, -0.107693, -0.450639, 0.127100, 0.058592, 0.223226, 0.052965, -0.835938, 0.225586, -0.075684, 0.097231, 0.020196, 0.006299, 0.999999, 0.000293, 0.001116, 0.000265, 62.260945, -76.224701, -154.834548, , , 0.000000, , , 
28436, , 9.676082, 2.012704, 0.810960, -0.093134, -0.297322, 0.098825, 0.070493, 0.245818, 0.059637, -0.833496, 0.223389, -0.075684, 0.096765, 0.020153, 0.007998, 0.999999, 0.000352, 0.001229, 0.000298, 61.745206, -76.185473, -154.261581, , , 0.000000, , , 
28437, , 9.698619, 2.149830, 1.060869, 0.047811, -0.082666, 0.177370, 0.053835, 0.263726, 0.059137, -0.835938, 0.223389, -0.077881, 0.096994, 0.021524, 0.010487, 0.999999, 0.000269, 0.001319, 0.000296, 61.171189, -76.142938, -153.638620, , , 0.000000, , , 
28438, , 9.621780, 2.352848, 1.281963, 0.272299, 0.109117, 0.170892, -0.006783, 0.281700, 0.050562, -0.835938, 0.225586, -0.080078, 0.096230, 0.023553, 0.012683, 0.999999, -0.000034, 0.001408, 0.000253, 60.575148, -76.089605, -153.032028, , , 0.000000, , , 
28439, , 9.540101, 2.380623, 1.153030, 0.316745, -0.040353, 0.082177, -0.124320, 0.281859, 0.042202, -0.838379, 0.225586, -0.082275, 0.095412, 0.023833, 0.011381, 0.999999, -0.000622, 0.001409, 0.000211, 59.890832, -76.030292, -152.400320, , , 0.000000, , , 
28440, , 9.616775, 2.218320, 1.273633, 0.148747, 0.049698, 0.137226, -0.172760, 0.283667, 0.049171, -0.835938, 0.227783, -0.084473, 0.096180, 0.022218, 0.012581, 0.999999, -0.000864, 0.001418, 0.000246, 59.205482, -75.967092, -151.795978, , , 0.000000, , , 
28441, , 9.739795, 2.251256, 1.470628, 0.166402, 0.196652, 0.288206, -0.200161, 0.290293, 0.049639, -0.835938, 0.223389, -0.084473, 0.097414, 0.022551, 0.014542, 0.999998, -0.001001, 0.001451, 0.000248, 58.464181, -75.905219, -151.149987, , , 0.000000, , , 
28442, , 9.649546, 2.298105, 1.046308, 0.221340, -0.249792, 0.156179, -0.220863, 0.308503, 0.053238, -0.831299, 0.229980, -0.086914, 0.096505, 0.023018, 0.010289, 0.999998, -0.001104, 0.001543, 0.000266, 57.711494, -75.830560, -150.506102, , , 0.000000, , , 
28443, , 9.571932, 2.025723, 1.136651, -0.019033, -0.169995, 0.035563, -0.234625, 0.325476, 0.058337, -0.826660, 0.227783, -0.091064, 0.095732, 0.020298, 0.011187, 0.999998, -0.001173, 0.001627, 0.000292, 56.886363, -75.757790, -149.793613, , , 0.000000, , , 
28444, , 9.699876, 2.039332, 1.378910, -0.018492, 0.016794, 0.194665, -0.215012, 0.356878, 0.066159, -0.829102, 0.227783, -0.095459, 0.097016, 0.020440, 0.013594, 0.999998, -0.001075, 0.001784, 0.000331, 56.054660, -75.676627, -149.065088, , , 0.000000, , , 
28445, , 9.475848, 1.862203, 1.367578, -0.137554, 0.004954, -0.060218, -0.191299, 0.396915, 0.071003, -0.833740, 0.232178, -0.097900, 0.094779, 0.018669, 0.013470, 0.999998, -0.000956, 0.001985, 0.000355, 55.123647, -75.581558, -148.217158, , , 0.000000, , , 
28446, , 9.469437, 1.803081, 1.495469, -0.183140, 0.095926, -0.060002, -0.149720, 0.387960, 0.079453, -0.833740, 0.229980, -0.104248, 0.094716, 0.018080, 0.014757, 0.999998, -0.000749, 0.001940, 0.000397, 54.259689, -75.487321, -147.412157, , , 0.000000, , , 
28447, , 9.581059, 2.006842, 1.625887, 0.004517, 0.155139, 0.109176, -0.136027, 0.389896, 0.081173, -0.826904, 0.232178, -0.102295, 0.095834, 0.020118, 0.016058, 0.999998, -0.000680, 0.001949, 0.000406, 53.382391, -75.392867, -146.586280, , , 0.000000, , , 
28448, , 9.440724, 2.174659, 1.968528, 0.218637, 0.459748, 0.060113, -0.180882, 0.398325, 0.087252, -0.831543, 0.234375, -0.106689, 0.094437, 0.021805, 0.019478, 0.999998, -0.000904, 0.001992, 0.000436, 52.483042, -75.291793, -145.762263, , , 0.000000, , , 
28449, , 9.571315, 1.984829, 1.708218, 0.003611, 0.155394, 0.109173, -0.192763, 0.389038, 0.083711, -0.836182, 0.229980, -0.108643, 0.095738, 0.019905, 0.016877, 0.999998, -0.000964, 0.001945, 0.000419, 51.594023, -75.192344, -144.957124, , , 0.000000, , , 
28450, , 9.588527, 2.182708, 1.310372, 0.182940, -0.297121, 0.101909, -0.193830, 0.398490, 0.079691, -0.826904, 0.240967, -0.111328, 0.095902, 0.021878, 0.012891, 0.999997, -0.000969, 0.001992, 0.000398, 50.719699, -75.075669, -144.166211, , , 0.000000, , , 
28451, , 9.943530, 1.920240, 1.595400, -0.127185, -0.094419, 0.438222, -0.266630, 0.400000, 0.081718, -0.827148, 0.240967, -0.122070, 0.099459, 0.019264, 0.015729, 0.999997, -0.001333, 0.002000, 0.000409, 49.797176, -74.964968, -143.369372, , , 0.000000, , , 
28452, , 9.911209, 1.837308, 0.974967, -0.219797, -0.741195, 0.284860, -0.226934, 0.433913, 0.097053, -0.826660, 0.228027, -0.115234, 0.099124, 0.018432, 0.009514, 0.999997, -0.001135, 0.002170, 0.000485, 48.824558, -74.845039, -142.490726, , , 0.000000, , , 
28453, , 9.694049, 1.719836, 1.236154, -0.268029, -0.487167, 0.094439, -0.251608, 0.421799, 0.105898, -0.829346, 0.238770, -0.119873, 0.096957, 0.017265, 0.012135, 0.999997, -0.001258, 0.002109, 0.000529, 47.868342, -74.729612, -141.649167, , , 0.000000, , , 
28454, , 9.679745, 1.548020, 1.600869, -0.406442, -0.157083, 0.110344, -0.194341, 0.440720, 0.117694, -0.822510, 0.241211, -0.126465, 0.096823, 0.015553, 0.015780, 0.999997, -0.000972, 0.002204, 0.000588, 46.957037, -74.608109, -140.821252, , , 0.000000, , , 
28455, , 9.432258, 1.513201, 1.837553, -0.366952, 0.074211, -0.091909, -0.114968, 0.435074, 0.137688, -0.822510, 0.241211, -0.128662, 0.094352, 0.015207, 0.018162, 0.999997, -0.000575, 0.002175, 0.000688, 46.041045, -74.493556, -139.939248, , , 0.000000, , , 
28456, , 9.342750, 2.006249, 2.152751, 0.160582, 0.315184, -0.023864, -0.042079, 0.417351, 0.142225, -0.820068, 0.241211, -0.130859, 0.093458, 0.020133, 0.021328, 0.999998, -0.000210, 0.002087, 0.000711, 45.201293, -74.391406, -139.089858, , , 0.000000, , , 
28457, , 8.891677, 2.422003, 2.438920, 0.683584, 0.600509, -0.323308, -0.083753, 0.382146, 0.139690, -0.817871, 0.243408, -0.130859, 0.088946, 0.024292, 0.024209, 0.999998, -0.000419, 0.001911, 0.000698, 44.400702, -74.292256, -138.308220, , , 0.000000, , , 
28458, , 8.908313, 2.644046, 2.534906, 0.913703, 0.635262, -0.245231, -0.183230, 0.356061, 0.119538, -0.817871, 0.245605, -0.131104, 0.089112, 0.026517, 0.025166, 0.999998, -0.000916, 0.001780, 0.000598, 43.628502, -74.195738, -137.617096, , , 0.000000, , , 
28459, , 9.298547, 2.014007, 1.702564, 0.190381, -0.237107, -0.152185, -0.310892, 0.381851, 0.121623, -0.820068, 0.245605, -0.131104, 0.093005, 0.020223, 0.016817, 0.999997, -0.001554, 0.001909, 0.000608, 42.744922, -74.083743, -136.883703, , , 0.000000, , , 
28460, , 10.177391, 0.958115, 1.187285, -1.032693, -0.853416, 0.390839, -0.292342, 0.401582, 0.131826, -0.817871, 0.245605, -0.141846, 0.101791, 0.009665, 0.011654, 0.999997, -0.001462, 0.002008, 0.000659, 41.870940, -73.966433, -136.155852, , , 0.000000, , , 
28461, , 10.549115, 0.586487, 1.311104, -1.450029, -0.815644, 0.702954, -0.039853, 0.440733, 0.163327, -0.818115, 0.252197, -0.144287, 0.105515, 0.005954, 0.012877, 0.999997, -0.000199, 0.002204, 0.000817, 41.026390, -73.839047, -135.300620, , , 0.000000, , , 
28462, , 9.761033, 1.695689, 1.973725, -0.160402, -0.164627, 0.286604, 0.124557, 0.503036, 0.162874, -0.818115, 0.254395, -0.146484, 0.097646, 0.017024, 0.019502, 0.999996, 0.000623, 0.002515, 0.000814, 40.210080, -73.689928, -134.375266, , , 0.000000, , , 
28463, , 8.681710, 2.390857, 2.254796, 0.755405, 0.216352, -0.563105, 0.000831, 0.492826, 0.140523, -0.817871, 0.250000, -0.153076, 0.086855, 0.023969, 0.022334, 0.999997, 0.000004, 0.002464, 0.000703, 39.386343, -73.524469, -133.516142, , , 0.000000, , , 
28464, , 8.540951, 2.630252, 3.081617, 1.069464, 0.986159, -0.472131, -0.190527, 0.427960, 0.121295, -0.815674, 0.250000, -0.157227, 0.085459, 0.026384, 0.030608, 0.999997, -0.000953, 0.002140, 0.000606, 38.585163, -73.385297, -132.794588, , , 0.000000, , , 
28465, , 8.831990, 2.466470, 3.454645, 0.886210, 1.258297, -0.135229, -0.391019, 0.376499, 0.097997, -0.815674, 0.256592, -0.155273, 0.088373, 0.024775, 0.034332, 0.999996, -0.001955, 0.001882, 0.000490, 37.769303, -73.250418, -132.176784, , , 0.000000, , , 
28466, , 8.697554, 2.112208, 3.346232, 0.576019, 1.171705, -0.346892, -0.465464, 0.321731, 0.080197, -0.818115, 0.254395, -0.161865, 0.087021, 0.021235, 0.033273, 0.999996, -0.002327, 0.001609, 0.000401, 37.021934, -73.125363, -131.674494, , , 0.000000, , , 
28467, , 8.563419, 2.351575, 2.765336, 0.819504, 0.572546, -0.565548, -0.497587, 0.295489, 0.069244, -0.813477, 0.254395, -0.157471, 0.085667, 0.023614, 0.027468, 0.999996, -0.002488, 0.001477, 0.000346, 36.300614, -73.013245, -131.218531, , , 0.000000, , , 
28468, , 9.291333, 1.609455, 2.277002, -0.064793, -0.023456, -0.112220, -0.559157, 0.292318, 0.071573, -0.818115, 0.260986, -0.155518, 0.092941, 0.016191, 0.022589, 0.999995, -0.002796, 0.001462, 0.000358, 35.569207, -72.884713, -130.787528, , , 0.000000, , , 
28469, , 10.312803, 0.740854, 1.470159, -1.151559, -0.976848, 0.520931, -0.401857, 0.363608, 0.110412, -0.813477, 0.258789, -0.164062, 0.103150, 0.007495, 0.014499, 0.999996, -0.002009, 0.001818, 0.000552, 34.784127, -72.750856, -130.206797, , , 0.000000, , , 
28470, , 10.622072, 0.147663, 1.017820, -1.810920, -1.460431, 0.602384, -0.089367, 0.406181, 0.164138, -0.815918, 0.260986, -0.159912, 0.106240, 0.001568, 0.009962, 0.999998, -0.000447, 0.002031, 0.000821, 34.074157, -72.606967, -129.519591, , , 0.000000, , , 
28471, , 10.034790, 0.591734, 1.670597, -1.205491, -0.791344, 0.274850, 0.258414, 0.471441, 0.202712, -0.806641, 0.260986, -0.170898, 0.100381, 0.005998, 0.016477, 0.999996, 0.001292, 0.002357, 0.001014, 33.439244, -72.446973, -128.698784, , , 0.000000, , , 
28472, , 9.341487, 1.679146, 2.417757, 0.050347, -0.071266, -0.018776, 0.372891, 0.488129, 0.205921, -0.806641, 0.263428, -0.179688, 0.093456, 0.016843, 0.023981, 0.999995, 0.001864, 0.002441, 0.001030, 32.864597, -72.286377, -127.876712, , , 0.000000, , , 
28473, , 9.175075, 1.858344, 3.076212, 0.303234, 0.542026, 0.021569, 0.259700, 0.508723, 0.180213, -0.811279, 0.260986, -0.177246, 0.091812, 0.018626, 0.030553, 0.999996, 0.001298, 0.002544, 0.000901, 32.254891, -72.096378, -127.080096, , , 0.000000, , , 
28474, , 8.835193, 1.534718, 3.365918, 0.069715, 0.896261, -0.276592, 0.158044, 0.455872, 0.156398, -0.804443, 0.269775, -0.179688, 0.088416, 0.015390, 0.033470, 0.999997, 0.000790, 0.002279, 0.000782, 31.686329, -71.923266, -126.386308, , , 0.000000, , , 
28475, , 8.769303, 1.605685, 3.801286, 0.180304, 1.287466, -0.208600, 0.073880, 0.368284, 0.127777, -0.804443, 0.265625, -0.184082, 0.087753, 0.016099, 0.037857, 0.999998, 0.000369, 0.001841, 0.000639, 31.203095, -71.781507, -125.833282, , , 0.000000, , , 
28476, , 8.240048, 1.959411, 3.422347, 0.609706, 0.990943, -0.751983, -0.043484, 0.281769, 0.089042, -0.809082, 0.261230, -0.188232, 0.082440, 0.019638, 0.034103, 0.999999, -0.000217, 0.001409, 0.000445, 30.772559, -71.673211, -125.415305, , , 0.000000, , , 
28477, , 8.408318, 1.540556, 2.866937, 0.144223, 0.431459, -0.807942, -0.227140, 0.229801, 0.056415, -0.806885, 0.269775, -0.188477, 0.084112, 0.015462, 0.028555, 0.999999, -0.001136, 0.001149, 0.000282, 30.357824, -71.576457, -125.115508, , , 0.000000, , , 
28478, , 9.463157, 1.071261, 2.253185, -0.536829, -0.408044, -0.049438, -0.136107, 0.244776, 0.062735, -0.806885, 0.267578, -0.188477, 0.094656, 0.010758, 0.022409, 0.999999, -0.000681, 0.001224, 0.000314, 29.978742, -71.465073, -124.801294, , , 0.000000, , , 
28479, , 10.147971, 1.168121, 1.771137, -0.587872, -1.087686, 0.480709, -0.034826, 0.288972, 0.080051, -0.804443, 0.267822, -0.195068, 0.101500, 0.011725, 0.017563, 0.999999, -0.000174, 0.001445, 0.000400, 29.597014, -71.344366, -124.419687, , , 0.000000, , , 
28480, , 9.946508, 1.321343, 1.789882, -0.393070, -1.064144, 0.316263, 0.088592, 0.323417, 0.120957, -0.802246, 0.267822, -0.199463, 0.099486, 0.013266, 0.017744, 0.999998, 0.000443, 0.001617, 0.000605, 29.198939, -71.215944, -123.949258, , , 0.000000, , , 
28481, , 9.222574, 2.170091, 2.467294, 0.615889, -0.341562, -0.047615, 0.131015, 0.349004, 0.129364, -0.797607, 0.270020, -0.195068, 0.092255, 0.021744, 0.024526, 0.999998, 0.000655, 0.001745, 0.000647, 28.801433, -71.077213, -123.449997, , , 0.000000, , , 
28482, , 9.177571, 2.098873, 2.893202, 0.584485, 0.052391, 0.018854, -0.018681, 0.373344, 0.119630, -0.804443, 0.267822, -0.199463, 0.091817, 0.021046, 0.028759, 0.999998, -0.000093, 0.001867, 0.000598, 28.319657, -70.924668, -122.954659, , , 0.000000, , , 
28483, , 9.072369, 1.728999, 3.287123, 0.269494, 0.458428, -0.023940, -0.069576, 0.381351, 0.114561, -0.799805, 0.270020, -0.206055, 0.090776, 0.017353, 0.032692, 0.999998, -0.000348, 0.001907, 0.000573, 27.818348, -70.763002, -122.466273, , , 0.000000, , , 
28484, , 8.838795, 1.501283, 3.622920, 0.113129, 0.831666, -0.179457, -0.119062, 0.335425, 0.100461, -0.797607, 0.274414, -0.206055, 0.088441, 0.015079, 0.036072, 0.999998, -0.000595, 0.001677, 0.000502, 27.375117, -70.618095, -122.069835, , , 0.000000, , , 
28485, , 8.870071, 1.535291, 3.989178, 0.171237, 1.137415, -0.033848, -0.183255, 0.257286, 0.075519, -0.795410, 0.274414, -0.206055, 0.088746, 0.015423, 0.039764, 0.999999, -0.000916, 0.001286, 0.000378, 26.971822, -70.506979, -121.753617, , , 0.000000, , , 
28486, , 8.646511, 1.434219, 3.825377, 0.113987, 1.029918, -0.305907, -0.279557, 0.175994, 0.054093, -0.795410, 0.276611, -0.201904, 0.086495, 0.014419, 0.038158, 0.999999, -0.001398, 0.000880, 0.000270, 26.599897, -70.429347, -121.535685, , , 0.000000, , , 
28487, , 8.946427, 1.488480, 3.959261, 0.135689, 1.046754, 0.026811, -0.308583, 0.113823, 0.031415, -0.793213, 0.278809, -0.204102, 0.089484, 0.014960, 0.039519, 0.999999, -0.001543, 0.000569, 0.000157, 26.297785, -70.379314, -121.402809, , , 0.000000, , , 
28488, , 9.159891, 1.712852, 3.387575, 0.296266, 0.398924, 0.090150, -0.340852, 0.115005, 0.010531, -0.797607, 0.276611, -0.204102, 0.091617, 0.017191, 0.033794, 0.999998, -0.001704, 0.000575, 0.000053, 25.992057, -70.324459, -121.301928, , , 0.000000, , , 
28489, , 9.320279, 1.336548, 2.526519, -0.148224, -0.439887, -0.075041, -0.394213, 0.103886, 0.000541, -0.800049, 0.274414, -0.212646, 0.093216, 0.013415, 0.025190, 0.999998, -0.001971, 0.000519, 0.000003, 25.694464, -70.271541, -121.225942, , , 0.000000, , , 
28490, , 9.942999, 0.968528, 2.323097, -0.625869, -0.788514, 0.394396, -0.318498, 0.154478, 0.028271, -0.793213, 0.281006, -0.206299, 0.099447, 0.009736, 0.023139, 0.999998, -0.001592, 0.000772, 0.000141, 25.375178, -70.188850, -121.082615, , , 0.000000, , , 
28491, , 9.512226, 1.254748, 1.917295, -0.291083, -1.104460, -0.095268, -0.193192, 0.204036, 0.058616, -0.797852, 0.278809, -0.210693, 0.095138, 0.012594, 0.019064, 0.999999, -0.000966, 0.001020, 0.000293, 25.044219, -70.097927, -120.848627, , , 0.000000, , , 
28492, , 9.430356, 1.524662, 2.368614, 0.029173, -0.709782, 0.003720, -0.096266, 0.234683, 0.091413, -0.793213, 0.281006, -0.210693, 0.094324, 0.015301, 0.023568, 0.999999, -0.000481, 0.001173, 0.000457, 24.695999, -69.997440, -120.542503, , , 0.000000, , , 
28493, , 9.213845, 1.550917, 2.884534, 0.139476, -0.186699, -0.036878, -0.094031, 0.267073, 0.105763, -0.792969, 0.276611, -0.212646, 0.092169, 0.015571, 0.028715, 0.999999, -0.000470, 0.001335, 0.000529, 24.319013, -69.883942, -120.198752, , , 0.000000, , , 
28494, , 9.194946, 1.304722, 3.361949, -0.055027, 0.272263, 0.060245, -0.064239, 0.296657, 0.115086, -0.795654, 0.285400, -0.213135, 0.091992, 0.013111, 0.033479, 0.999999, -0.000321, 0.001483, 0.000575, 23.940728, -69.754814, -119.837367, , , 0.000000, , , 
28495, , 9.026912, 1.336603, 3.439740, 0.019164, 0.361956, -0.067329, -0.080402, 0.295084, 0.093517, -0.786377, 0.285400, -0.213135, 0.090313, 0.013422, 0.034259, 0.999999, -0.000402, 0.001475, 0.000468, 23.580000, -69.622290, -119.502070, , , 0.000000, , , 
28496, , 9.132731, 1.161256, 4.051949, -0.115288, 0.902384, 0.204594, -0.164314, 0.234690, 0.077394, -0.783936, 0.283203, -0.212891, 0.091370, 0.011681, 0.040403, 0.999999, -0.000822, 0.001173, 0.000387, 23.221828, -69.522232, -119.232143, , , 0.000000, , , 
28497, , 9.239561, 1.096693, 3.558931, -0.224482, 0.387068, 0.139094, -0.223260, 0.216494, 0.057057, -0.802490, 0.283203, -0.217285, 0.092431, 0.011033, 0.035477, 0.999999, -0.001116, 0.001082, 0.000285, 22.885585, -69.421648, -119.009969, , , 0.000000, , , 
28498, , 9.273414, 1.030655, 2.868962, -0.339861, -0.288475, -0.061245, -0.245410, 0.197162, 0.056057, -0.786133, 0.281250, -0.217285, 0.092759, 0.010368, 0.028585, 0.999999, -0.001227, 0.000986, 0.000280, 22.564521, -69.332471, -118.826227, , , 0.000000, , , 
28499, , 9.260744, 1.474744, 2.794481, 0.101075, -0.434449, -0.037905, -0.162721, 0.184231, 0.061975, -0.786377, 0.287598, -0.219727, 0.092629, 0.014799, 0.027847, 0.999999, -0.000814, 0.000921, 0.000310, 22.279929, -69.249308, -118.621961, , , 0.000000, , , 
28500, , 9.153035, 1.628213, 3.024988, 0.297534, -0.225513, -0.043335, -0.190297, 0.184428, 0.070847, -0.788574, 0.285400, -0.226074, 0.091552, 0.016343, 0.030150, 0.999999, -0.000951, 0.000922, 0.000354, 21.969528, -69.167525, -118.413349, , , 0.000000, , , 
28501, , 9.063344, 1.416356, 3.686148, 0.170285, 0.431141, 0.062688, -0.165700, 0.183880, 0.089697, -0.781494, 0.281250, -0.215088, 0.090661, 0.014235, 0.036766, 0.999999, -0.000829, 0.000919, 0.000448, 21.648850, -69.089728, -118.172085, , , 0.000000, , , 
28502, , 9.034340, 1.172855, 3.900352, -0.036372, 0.653685, 0.075637, -0.097392, 0.184686, 0.098216, -0.784180, 0.289795, -0.221924, 0.090374, 0.011792, 0.038914, 0.999999, -0.000487, 0.000923, 0.000491, 21.375494, -69.009545, -117.941511, , , 0.000000, , , 
28503, , 8.789607, 1.142704, 3.606535, -0.040860, 0.441080, -0.253723, -0.048940, 0.160075, 0.101237, -0.781738, 0.294189, -0.221924, 0.087919, 0.011480, 0.035992, 1.000000, -0.000245, 0.000800, 0.000506, 21.122614, -68.946038, -117.700963, , , 0.000000, , , 
28504, , 9.037447, 0.805463, 3.857338, -0.382526, 0.628207, 0.019011, -0.027174, 0.123326, 0.095807, -0.788574, 0.283447, -0.228271, 0.090394, 0.008103, 0.038517, 1.000000, -0.000136, 0.000617, 0.000479, 20.888549, -68.901583, -117.479786, , , 0.000000, , , 
28505, , 9.095232, 0.976313, 3.919903, -0.211855, 0.632943, 0.116893, 0.001666, 0.111614, 0.087296, -0.784180, 0.291992, -0.226318, 0.090970, 0.009803, 0.039148, 1.000000, 0.000008, 0.000558, 0.000436, 20.711811, -68.860603, -117.289665, , , 0.000000, , , 
28506, , 9.144321, 1.128207, 3.361152, -0.113808, 0.060842, -0.005948, -0.030074, 0.093045, 0.071031, -0.786621, 0.298584, -0.222168, 0.091455, 0.011320, 0.033567, 1.000000, -0.000150, 0.000465, 0.000355, 20.561048, -68.815624, -117.143579, , , 0.000000, , , 
28507, , 9.473267, 0.603097, 2.997603, -0.708747, -0.323575, 0.111279, -0.061034, 0.077060, 0.063682, -0.781738, 0.291992, -0.226318, 0.094742, 0.006070, 0.029938, 1.000000, -0.000305, 0.000385, 0.000318, 20.400565, -68.788052, -117.009300, , , 0.000000, , , 
28508, , 9.393749, 0.958892, 2.763972, -0.359027, -0.574470, 0.002739, 0.045162, 0.099425, 0.076846, -0.781738, 0.294189, -0.224121, 0.093948, 0.009619, 0.027595, 1.000000, 0.000226, 0.000497, 0.000384, 20.246960, -68.754246, -116.832447, , , 0.000000, , , 
28509, , 9.200262, 1.472724, 2.881350, 0.192168, -0.481671, -0.073747, 0.050177, 0.114588, 0.076295, -0.788818, 0.291992, -0.232910, 0.092013, 0.014755, 0.028764, 1.000000, 0.000251, 0.000573, 0.000381, 20.114458, -68.708840, -116.659803, , , 0.000000, , , 
28510, , 9.025941, 1.639784, 3.311130, 0.426322, -0.056814, -0.069223, 0.003028, 0.123635, 0.080397, -0.786621, 0.296387, -0.230957, 0.090273, 0.016434, 0.033056, 1.000000, 0.000015, 0.000618, 0.000402, 19.943526, -68.657741, -116.478388, , , 0.000000, , , 
28511, , 8.889393, 1.555742, 3.513899, 0.389612, 0.176179, -0.137654, -0.054392, 0.124020, 0.081254, -0.779541, 0.294434, -0.232910, 0.088909, 0.015603, 0.035080, 1.000000, -0.000272, 0.000620, 0.000406, 19.741242, -68.607880, -116.295039, , , 0.000000, , , 
28512, , 8.717009, 1.304551, 3.768557, 0.200067, 0.491534, -0.241456, -0.064337, 0.104159, 0.080789, -0.784180, 0.296387, -0.233154, 0.087184, 0.013093, 0.037636, 1.000000, -0.000322, 0.000521, 0.000404, 19.535978, -68.563722, -116.115915, , , 0.000000, , , 
28513, , 8.871355, 1.198732, 4.248675, 0.120672, 0.894270, 0.055181, -0.074540, 0.069236, 0.073327, -0.784424, 0.302979, -0.230957, 0.088724, 0.012036, 0.042452, 1.000000, -0.000373, 0.000346, 0.000367, 19.361268, -68.541489, -115.974493, , , 0.000000, , , 
28514, , 8.853220, 0.925501, 3.838910, -0.172054, 0.545427, -0.135591, -0.099212, 0.065286, 0.045703, -0.784180, 0.300781, -0.219971, 0.088543, 0.009294, 0.038356, 1.000000, -0.000496, 0.000326, 0.000229, 19.194331, -68.513096, -115.863262, , , 0.000000, , , 
28515, , 9.201228, 0.477371, 3.437308, -0.697066, 0.109891, -0.004141, -0.061219, 0.053570, 0.051245, -0.784180, 0.294189, -0.235107, 0.092020, 0.004808, 0.034347, 1.000000, -0.000306, 0.000268, 0.000256, 19.065644, -68.494958, -115.763078, , , 0.000000, , , 
28516, , 9.375945, 0.837253, 3.330280, -0.376254, -0.101341, 0.164700, 0.055197, 0.045853, 0.048945, -0.774902, 0.296631, -0.228760, 0.093765, 0.008386, 0.033284, 1.000000, 0.000276, 0.000229, 0.000245, 19.013290, -68.484851, -115.686038, , , 0.000000, , , 
28517, , 9.383433, 1.008299, 3.412638, -0.200108, -0.054340, 0.220686, 0.071998, 0.049604, 0.050630, -0.779541, 0.296387, -0.228760, 0.093840, 0.010094, 0.034107, 1.000000, 0.000360, 0.000248, 0.000253, 18.964067, -68.468787, -115.589255, , , 0.000000, , , 
28518, , 9.180279, 1.271318, 3.513605, 0.101461, 0.067418, 0.098132, 0.094245, 0.057364, 0.054588, -0.775146, 0.303223, -0.233154, 0.091809, 0.012722, 0.035116, 1.000000, 0.000471, 0.000287, 0.000273, 18.912038, -68.451139, -115.488541, , , 0.000000, , , 
28519, , 9.049191, 1.234026, 3.633607, 0.097065, 0.223956, 0.013512, 0.097499, 0.054350, 0.061129, -0.777344, 0.294434, -0.232910, 0.090498, 0.012350, 0.036317, 1.000000, 0.000487, 0.000272, 0.000306, 18.861120, -68.434469, -115.374235, , , 0.000000, , , 
28520, , 8.891550, 1.256579, 3.639234, 0.146585, 0.273592, -0.128353, 0.105030, 0.057990, 0.058547, -0.784180, 0.300781, -0.237549, 0.088922, 0.012573, 0.036373, 1.000000, 0.000525, 0.000290, 0.000293, 18.796153, -68.411994, -115.249028, , , 0.000000, , , 
28521, , 8.876761, 1.145047, 3.614439, 0.037913, 0.266891, -0.163878, 0.104905, 0.043261, 0.057452, -0.779541, 0.300781, -0.228760, 0.088772, 0.011457, 0.036131, 1.000000, 0.000525, 0.000216, 0.000287, 18.759919, -68.400608, -115.145939, , , 0.000000, , , 
28522, , 8.892192, 0.952573, 3.659862, -0.148720, 0.326910, -0.156390, 0.100616, 0.036269, 0.051042, -0.781982, 0.298584, -0.224365, 0.088926, 0.009530, 0.036587, 1.000000, 0.000503, 0.000181, 0.000255, 18.721889, -68.392676, -115.054333, , , 0.000000, , , 
28523, , 8.979295, 0.938001, 3.867758, -0.159633, 0.493058, -0.004602, 0.107895, 0.008749, 0.039609, -0.779785, 0.302979, -0.237549, 0.089793, 0.009377, 0.038679, 1.000000, 0.000539, 0.000044, 0.000198, 18.727956, -68.396786, -114.994927, , , 0.000000, , , 
28524, , 9.148830, 0.909964, 3.704079, -0.226576, 0.289228, 0.092580, 0.084573, -0.006503, 0.022014, -0.772705, 0.294434, -0.235107, 0.091486, 0.009094, 0.037048, 1.000000, 0.000423, -0.000033, 0.000110, 18.741858, -68.411802, -114.976249, , , 0.000000, , , 
28525, , 9.129147, 0.792380, 3.541139, -0.353891, 0.161533, 0.003500, 0.113794, -0.020760, 0.017959, -0.777344, 0.298828, -0.233154, 0.091287, 0.007912, 0.035425, 1.000000, 0.000569, -0.000104, 0.000090, 18.794736, -68.428089, -114.963622, , , 0.000000, , , 
28526, , 9.175700, 1.031953, 3.585639, -0.124407, 0.161121, 0.090533, 0.172865, -0.038003, 0.020117, -0.781982, 0.298584, -0.235352, 0.091749, 0.010298, 0.035883, 1.000000, 0.000864, -0.000190, 0.000101, 18.880374, -68.450280, -114.957350, , , 0.000000, , , 
28527, , 9.137877, 1.172739, 3.617858, 0.018664, 0.191897, 0.083162, 0.164867, -0.026382, 0.012737, -0.774902, 0.298828, -0.237549, 0.091373, 0.011703, 0.036200, 1.000000, 0.000824, -0.000132, 0.000064, 18.972547, -68.468691, -114.955520, , , 0.000000, , , 
28528, , 9.023517, 1.080624, 3.985649, -0.031424, 0.588090, 0.093380, 0.206480, 0.005655, 0.010366, -0.777344, 0.301025, -0.235352, 0.090236, 0.010770, 0.039865, 0.999999, 0.001032, 0.000028, 0.000052, 19.061685, -68.463995, -114.930553, , , 0.000000, , , 
28529, , 8.786606, 0.936333, 3.712507, -0.165138, 0.431356, -0.239259, 0.227255, 0.022805, -0.002604, -0.784180, 0.298584, -0.244141, 0.087870, 0.009320, 0.037126, 0.999999, 0.001136, 0.000114, -0.000013, 19.187454, -68.452923, -114.926421, , , 0.000000, , , 
28530, , 8.766359, 0.824380, 3.549920, -0.291756, 0.301790, -0.328260, 0.250900, -0.038931, -0.000090, -0.774902, 0.296631, -0.239502, 0.087657, 0.008199, 0.035527, 0.999999, 0.001254, -0.000195, -0.000000, 19.328508, -68.467172, -114.927287, , , 0.000000, , , 
28531, , 8.859123, 0.914280, 3.700984, -0.215723, 0.411541, -0.179343, 0.286216, -0.093300, -0.001390, -0.786621, 0.296387, -0.239502, 0.088574, 0.009089, 0.037064, 0.999999, 0.001431, -0.000466, -0.000007, 19.542378, -68.519071, -114.981545, , , 0.000000, , , 
28532, , 8.994338, 1.204716, 3.966485, 0.057847, 0.596186, 0.072839, 0.285631, -0.149563, -0.013220, -0.781738, 0.290039, -0.239258, 0.089914, 0.011984, 0.039749, 0.999999, 0.001428, -0.000748, -0.000066, 19.786836, -68.591090, -115.071219, , , 0.000000, , , 
28533, , 9.023086, 1.182876, 4.108320, 0.030739, 0.741346, 0.144370, 0.211997, -0.154408, -0.039968, -0.772705, 0.298828, -0.237549, 0.090201, 0.011767, 0.041165, 0.999999, 0.001060, -0.000772, -0.000200, 20.043323, -68.668218, -115.216853, , , 0.000000, , , 
28534, , 8.687481, 0.820938, 3.402398, -0.328550, 0.248671, -0.455724, 0.240543, -0.197496, -0.060636, -0.777344, 0.298828, -0.235352, 0.086844, 0.008142, 0.034120, 0.999999, 0.001203, -0.000987, -0.000303, 20.346111, -68.754532, -115.400331, , , 0.000000, , , 
28535, , 8.820019, 1.062757, 3.518310, -0.115698, 0.313096, -0.263384, 0.280928, -0.260051, -0.068579, -0.784180, 0.294189, -0.235107, 0.088158, 0.010548, 0.035313, 0.999998, 0.001405, -0.001300, -0.000343, 20.740034, -68.881999, -115.650817, , , 0.000000, , , 
28536, , 9.147467, 1.229998, 3.601937, -0.008879, 0.296398, 0.090593, 0.283008, -0.275232, -0.087876, -0.781738, 0.287842, -0.230469, 0.091430, 0.012209, 0.036163, 0.999998, 0.001415, -0.001376, -0.000439, 21.133261, -69.009491, -115.914029, , , 0.000000, , , 
28537, , 9.044771, 1.511090, 3.365549, 0.256666, 0.110449, -0.048466, 0.236363, -0.297979, -0.100584, -0.781738, 0.292236, -0.232910, 0.090405, 0.015026, 0.033808, 0.999998, 0.001182, -0.001490, -0.000503, 21.574770, -69.149285, -116.242397, , , 0.000000, , , 
28538, , 9.098894, 1.232115, 3.803966, -0.015328, 0.569120, 0.109705, 0.159253, -0.347527, -0.107453, -0.783936, 0.287842, -0.230469, 0.090929, 0.012242, 0.038207, 0.999998, 0.000796, -0.001738, -0.000537, 21.997394, -69.307879, -116.607277, , , 0.000000, , , 
28539, , 8.961893, 1.351147, 4.205692, 0.132167, 1.017033, 0.125975, 0.163804, -0.352253, -0.127363, -0.784180, 0.291992, -0.228516, 0.089553, 0.013420, 0.042226, 0.999998, 0.000819, -0.001761, -0.000637, 22.477163, -69.468866, -117.020286, , , 0.000000, , , 
28540, , 8.778244, 1.157061, 3.744989, -0.066586, 0.694223, -0.224424, 0.108612, -0.364338, -0.149300, -0.788574, 0.287598, -0.224121, 0.087723, 0.011485, 0.037616, 0.999998, 0.000543, -0.001822, -0.000746, 22.933577, -69.621257, -117.451175, , , 0.000000, , , 
28541, , 8.903927, 1.034379, 3.597544, -0.228947, 0.569109, -0.173409, 0.126630, -0.435983, -0.155978, -0.786377, 0.285400, -0.219482, 0.088969, 0.010252, 0.036176, 0.999997, 0.000633, -0.002180, -0.000780, 23.498164, -69.817382, -117.976445, , , 0.000000, , , 
28542, , 8.954759, 1.240961, 3.789849, -0.036555, 0.759652, -0.039662, 0.115361, -0.463280, -0.167594, -0.788574, 0.285400, -0.217285, 0.089470, 0.012313, 0.038113, 0.999997, 0.000577, -0.002316, -0.000838, 24.071238, -70.018105, -118.530074, , , 0.000000, , , 
28543, , 8.911319, 1.123605, 2.783386, -0.210893, -0.121165, -0.412584, 0.110737, -0.518319, -0.171157, -0.788574, 0.279053, -0.219238, 0.089050, 0.011144, 0.028071, 0.999996, 0.000554, -0.002592, -0.000856, 24.724839, -70.249860, -119.158315, , , 0.000000, , , 
28544, , 9.023638, 1.301435, 2.734552, -0.069980, -0.167481, -0.296158, 0.138506, -0.564039, -0.172823, -0.790771, 0.276611, -0.208252, 0.090170, 0.012917, 0.027609, 0.999995, 0.000693, -0.002820, -0.000864, 25.408004, -70.489810, -119.805699, , , 0.000000, , , 
28545, , 8.948763, 1.327209, 2.729428, -0.046861, -0.096351, -0.363886, 0.151655, -0.578756, -0.175667, -0.793213, 0.278809, -0.210693, 0.089420, 0.013173, 0.027563, 0.999995, 0.000758, -0.002894, -0.000878, 26.166223, -70.746363, -120.518100, , , 0.000000, , , 
28546, , 8.940109, 1.276630, 2.265560, -0.132857, -0.475825, -0.515175, 0.197942, -0.591796, -0.166290, -0.792969, 0.274414, -0.203857, 0.089344, 0.012669, 0.022933, 0.999995, 0.000990, -0.002959, -0.000831, 26.940332, -70.997715, -121.223110, , , 0.000000, , , 
28547, , 9.092055, 1.179834, 2.279482, -0.267431, -0.436087, -0.379157, 0.250035, -0.601669, -0.150015, -0.797607, 0.276611, -0.197510, 0.090860, 0.011701, 0.023083, 0.999994, 0.001250, -0.003008, -0.000750, 27.774476, -71.266095, -121.953962, , , 0.000000, , , 
28548, , 9.352208, 1.391539, 2.515589, -0.106757, -0.242222, -0.032198, 0.314619, -0.563542, -0.151672, -0.797607, 0.276611, -0.197510, 0.093461, 0.013805, 0.025441, 0.999995, 0.001573, -0.002818, -0.000758, 28.606816, -71.504133, -122.650715, , , 0.000000, , , 
28549, , 9.398001, 1.409071, 2.519503, -0.114592, -0.193117, 0.016100, 0.324365, -0.534337, -0.152926, -0.799805, 0.270020, -0.192871, 0.093923, 0.013978, 0.025469, 0.999995, 0.001622, -0.002672, -0.000765, 29.474611, -71.730922, -123.370072, , , 0.000000, , , 
28550, , 9.748981, 1.533145, 3.315547, -0.036274, 0.525408, 0.584827, 0.326267, -0.519594, -0.159209, -0.811523, 0.271973, -0.190918, 0.097415, 0.015199, 0.033433, 0.999995, 0.001631, -0.002598, -0.000796, 30.314111, -71.937050, -124.062966, , , 0.000000, , , 
28551, , 9.516014, 1.660298, 2.831863, 0.088964, 0.166419, 0.251838, 0.243760, -0.503816, -0.178650, -0.804443, 0.265625, -0.181885, 0.095103, 0.016483, 0.028578, 0.999996, 0.001219, -0.002519, -0.000893, 31.184640, -72.134398, -124.832029, , , 0.000000, , , 
28552, , 9.277748, 1.389475, 2.465069, -0.167388, -0.050519, -0.114596, 0.152960, -0.539773, -0.168230, -0.804443, 0.267822, -0.186279, 0.092722, 0.013798, 0.024912, 0.999996, 0.000765, -0.002699, -0.000841, 32.020228, -72.343536, -125.619113, , , 0.000000, , , 
28553, , 9.297693, 1.286816, 2.680795, -0.279398, 0.217834, -0.057492, 0.214034, -0.555512, -0.171630, -0.806641, 0.263428, -0.179688, 0.092913, 0.012760, 0.027080, 0.999995, 0.001070, -0.002778, -0.000858, 32.950517, -72.560771, -126.466937, , , 0.000000, , , 
28554, , 9.217992, 1.316470, 2.337711, -0.265921, -0.041584, -0.215990, 0.252977, -0.576223, -0.179961, -0.804443, 0.269775, -0.173340, 0.092124, 0.013052, 0.023659, 0.999995, 0.001265, -0.002881, -0.000900, 33.909135, -72.769487, -127.319275, , , 0.000000, , , 
28555, , 9.408670, 1.203239, 2.304061, -0.430992, -0.049803, -0.061227, 0.296886, -0.580386, -0.171576, -0.813477, 0.258789, -0.170654, 0.094030, 0.011917, 0.023331, 0.999994, 0.001484, -0.002902, -0.000858, 34.957792, -72.989636, -128.239293, , , 0.000000, , , 
28556, , 9.321977, 1.565296, 2.385369, -0.074377, 0.081953, -0.064520, 0.425543, -0.586022, -0.163643, -0.808838, 0.256592, -0.168457, 0.093162, 0.015526, 0.024160, 0.999993, 0.002128, -0.002930, -0.000818, 36.044422, -73.207911, -129.128873, , , 0.000000, , , 
28557, , 9.308781, 2.310574, 2.149884, 0.632283, -0.133491, -0.004723, 0.410093, -0.580358, -0.165684, -0.808838, 0.258789, -0.159912, 0.093044, 0.022984, 0.021816, 0.999993, 0.002050, -0.002902, -0.000828, 37.200358, -73.419584, -130.091075, , , 0.000000, , , 
28558, , 9.421584, 2.245339, 1.996473, 0.525687, -0.240437, 0.059454, 0.284234, -0.580650, -0.151564, -0.813477, 0.258789, -0.155518, 0.094174, 0.022353, 0.020270, 0.999994, 0.001421, -0.002903, -0.000758, 38.247336, -73.627005, -131.022466, , , 0.000000, , , 
28559, , 9.574145, 2.028849, 2.161933, 0.273321, -0.034308, 0.206205, 0.276604, -0.571194, -0.139376, -0.818115, 0.256592, -0.159668, 0.095693, 0.020192, 0.021921, 0.999995, 0.001383, -0.002856, -0.000697, 39.326841, -73.833448, -131.982663, , , 0.000000, , , 
28560, , 9.509706, 1.936120, 2.229654, 0.182499, 0.110206, 0.142646, 0.248394, -0.554714, -0.134828, -0.815674, 0.252197, -0.146484, 0.095048, 0.019269, 0.022584, 0.999995, 0.001242, -0.002774, -0.000674, 40.331965, -74.027390, -132.885688, , , 0.000000, , , 
28561, , 9.535533, 1.523918, 2.064840, -0.245779, 0.027482, 0.059032, 0.240409, -0.523685, -0.133270, -0.822510, 0.250000, -0.150879, 0.095311, 0.015151, 0.020916, 0.999996, 0.001202, -0.002618, -0.000666, 41.367794, -74.205739, -133.820191, , , 0.000000, , , 
28562, , 9.530129, 1.229522, 1.802823, -0.554296, -0.156370, -0.052908, 0.318590, -0.511019, -0.126619, -0.820312, 0.254395, -0.146484, 0.095263, 0.012206, 0.018291, 0.999995, 0.001593, -0.002555, -0.000633, 42.418096, -74.371717, -134.722876, , , 0.000000, , , 
28563, , 9.571174, 1.155795, 1.661878, -0.652572, -0.243377, -0.054629, 0.366637, -0.512417, -0.125541, -0.820312, 0.245605, -0.141846, 0.095676, 0.011467, 0.016885, 0.999995, 0.001833, -0.002562, -0.000628, 43.542621, -74.538727, -135.672822, , , 0.000000, , , 
28564, , 9.592070, 1.543326, 1.837056, -0.287936, -0.042434, 0.070603, 0.397234, -0.520262, -0.127697, -0.820312, 0.250000, -0.142090, 0.095882, 0.015335, 0.018651, 0.999994, 0.001986, -0.002601, -0.000638, 44.668945, -74.699099, -136.605575, , , 0.000000, , , 
28565, , 9.396790, 1.914351, 1.885875, 0.096861, 0.079992, -0.040030, 0.381339, -0.523806, -0.143849, -0.822510, 0.243408, -0.139648, 0.093932, 0.019040, 0.019141, 0.999994, 0.001907, -0.002619, -0.000719, 45.889989, -74.852895, -137.645356, , , 0.000000, , , 
28566, , 9.353753, 1.985721, 1.886015, 0.158189, 0.139534, -0.068560, 0.305645, -0.545492, -0.156597, -0.824707, 0.241211, -0.133057, 0.093501, 0.019755, 0.019145, 0.999995, 0.001528, -0.002727, -0.000783, 47.070497, -74.996336, -138.683210, , , 0.000000, , , 
28567, , 9.435344, 1.870233, 1.796195, 0.010351, 0.100558, -0.028042, 0.252419, -0.547024, -0.160967, -0.824707, 0.243164, -0.128662, 0.094319, 0.018603, 0.018243, 0.999995, 0.001262, -0.002735, -0.000805, 48.322970, -75.140144, -139.830513, , , 0.000000, , , 
28568, , 9.591136, 1.756288, 1.760023, -0.149331, 0.098990, 0.093863, 0.262893, -0.528530, -0.160100, -0.824707, 0.243164, -0.122314, 0.095878, 0.017463, 0.017877, 0.999995, 0.001314, -0.002643, -0.000801, 49.524270, -75.265409, -140.915370, , , 0.000000, , , 
28569, , 9.584870, 1.980562, 1.543420, 0.052229, -0.065955, 0.095246, 0.294066, -0.518212, -0.156673, -0.829346, 0.243164, -0.120117, 0.095824, 0.019708, 0.015712, 0.999995, 0.001470, -0.002591, -0.000783, 50.788973, -75.387684, -142.049270, , , 0.000000, , , 
28570, , 9.468724, 2.219643, 1.469839, 0.293602, -0.075349, 0.018479, 0.267123, -0.506059, -0.160131, -0.831543, 0.236572, -0.117676, 0.094667, 0.022101, 0.014968, 0.999996, 0.001336, -0.002530, -0.000801, 51.982454, -75.502626, -143.128285, , , 0.000000, , , 
28571, , 9.578861, 2.221972, 1.273193, 0.255949, -0.232134, 0.096556, 0.217575, -0.500603, -0.153889, -0.829346, 0.238770, -0.115479, 0.095773, 0.022132, 0.012996, 0.999996, 0.001088, -0.002503, -0.000769, 53.205550, -75.607769, -144.263325, , , 0.000000, , , 
28572, , 9.667891, 2.072945, 1.266843, 0.077169, -0.196754, 0.153516, 0.155641, -0.477715, -0.148937, -0.831543, 0.234375, -0.108887, 0.096664, 0.020647, 0.012915, 0.999997, 0.000778, -0.002389, -0.000745, 54.306315, -75.699084, -145.303831, , , 0.000000, , , 
28573, , 9.605133, 1.848060, 1.118842, -0.145512, -0.277910, 0.027388, 0.146725, -0.470401, -0.142567, -0.829346, 0.236572, -0.111084, 0.096038, 0.018404, 0.011428, 0.999997, 0.000734, -0.002352, -0.000713, 55.448962, -75.788209, -146.396789, , , 0.000000, , , 
28574, , 9.754700, 1.829454, 1.111834, -0.207744, -0.259018, 0.168635, 0.148296, -0.450162, -0.147972, -0.831299, 0.227783, -0.104248, 0.097535, 0.018214, 0.011351, 0.999997, 0.000741, -0.002251, -0.000740, 56.511519, -75.862376, -147.403585, , , 0.000000, , , 
28575, , 9.846224, 1.850556, 1.084131, -0.220956, -0.252514, 0.258820, 0.150751, -0.432354, -0.141549, -0.829102, 0.229980, -0.099854, 0.098452, 0.018428, 0.011068, 0.999997, 0.000754, -0.002162, -0.000708, 57.606750, -75.929837, -148.444536, , , 0.000000, , , 
28576, , 9.758669, 2.212124, 1.080921, 0.136171, -0.211632, 0.248624, 0.143334, -0.407980, -0.143873, -0.840576, 0.229980, -0.095703, 0.097580, 0.022043, 0.011024, 0.999997, 0.000717, -0.002040, -0.000719, 58.625665, -75.979640, -149.411046, , , 0.000000, , , 
28577, , 9.695079, 2.374856, 1.152980, 0.293801, -0.094878, 0.230638, 0.084016, -0.387432, -0.146495, -0.831543, 0.229980, -0.093506, 0.096946, 0.023673, 0.011728, 0.999998, 0.000420, -0.001937, -0.000732, 59.616705, -76.022258, -150.383531, , , 0.000000, , , 
28578, , 9.596650, 2.339849, 1.128849, 0.266990, -0.069176, 0.125557, 0.037347, -0.363654, -0.145998, -0.835938, 0.227783, -0.093262, 0.095963, 0.023326, 0.011467, 0.999998, 0.000187, -0.001818, -0.000730, 60.501353, -76.056424, -151.269495, , , 0.000000, , , 
28579, , 9.463772, 2.255720, 1.202927, 0.199669, 0.057222, -0.011920, -0.001298, -0.357746, -0.138070, -0.836182, 0.234375, -0.091309, 0.094632, 0.022492, 0.012198, 0.999998, -0.000006, -0.001789, -0.000690, 61.383978, -76.087523, -152.180349, , , 0.000000, , , 
28580, , 9.405176, 2.192682, 1.196576, 0.140430, 0.091483, -0.082899, -0.016160, -0.371402, -0.137953, -0.835938, 0.227783, -0.086670, 0.094044, 0.021863, 0.012139, 0.999998, -0.000081, -0.001857, -0.000690, 62.212385, -76.124314, -153.038902, , , 0.000000, , , 
28581, , 9.439799, 1.967989, 1.141721, -0.098496, 0.074166, -0.103362, -0.040630, -0.374322, -0.136476, -0.831299, 0.229980, -0.086914, 0.094390, 0.019618, 0.011590, 0.999998, -0.000203, -0.001872, -0.000682, 63.112370, -76.154047, -153.990584, , , 0.000000, , , 
28582, , 9.519250, 2.099740, 1.107187, 0.003408, 0.060353, -0.002126, -0.001095, -0.361488, -0.136996, -0.838135, 0.221191, -0.086670, 0.095187, 0.020932, 0.011244, 0.999998, -0.000005, -0.001807, -0.000685, 63.928188, -76.183216, -154.832106, , , 0.000000, , , 
28583, , 9.531359, 2.285184, 1.014102, 0.169241, -0.003751, 0.039647, -0.018429, -0.360894, -0.135322, -0.835938, 0.223389, -0.073486, 0.095311, 0.022788, 0.010311, 0.999998, -0.000092, -0.001804, -0.000677, 64.817960, -76.203462, -155.759950, , , 0.000000, , , 
28584, , 9.666219, 2.240043, 0.915928, 0.083637, -0.081576, 0.151185, -0.101508, -0.368529, -0.145788, -0.838135, 0.218994, -0.075684, 0.096661, 0.022335, 0.009326, 0.999998, -0.000508, -0.001843, -0.000729, 65.631280, -76.214797, -156.654588, , , 0.000000, , , 
28585, , 9.799410, 1.952044, 0.894128, -0.239180, -0.074580, 0.216046, -0.121274, -0.350458, -0.144714, -0.843018, 0.227539, -0.067139, 0.097992, 0.019455, 0.009101, 0.999998, -0.000606, -0.001752, -0.000724, 66.452141, -76.221238, -157.572038, , , 0.000000, , , 
28586, , 9.663126, 2.009141, 0.907548, -0.164214, -0.019488, 0.097351, -0.100187, -0.353140, -0.146149, -0.845215, 0.220947, -0.066895, 0.096630, 0.020025, 0.009236, 0.999998, -0.000501, -0.001766, -0.000731, 67.244641, -76.229865, -158.441695, , , 0.000000, , , 
28587, , 9.567975, 2.109869, 0.976184, -0.056733, 0.086346, 0.033117, -0.093556, -0.348322, -0.149239, -0.844971, 0.212402, -0.068848, 0.095678, 0.021032, 0.009919, 0.999998, -0.000468, -0.001742, -0.000746, 68.081656, -76.227303, -159.359388, , , 0.000000, , , 
28588, , 9.384662, 2.151076, 0.918708, 0.011128, 0.072679, -0.141207, -0.087595, -0.351201, -0.142480, -0.840332, 0.216797, -0.060303, 0.093846, 0.021448, 0.009342, 0.999998, -0.000438, -0.001756, -0.000712, 68.871408, -76.219802, -160.212467, , , 0.000000, , , 
28589, , 9.473649, 2.222581, 1.014251, 0.050483, 0.190126, -0.031082, -0.091134, -0.352910, -0.141652, -0.847412, 0.218750, -0.058105, 0.094734, 0.022163, 0.010300, 0.999998, -0.000456, -0.001765, -0.000708, 69.711946, -76.215991, -161.132375, , , 0.000000, , , 
28590, , 9.533635, 2.204656, 0.818193, 0.005950, 0.021255, 0.006659, -0.086732, -0.351536, -0.139544, -0.842773, 0.216553, -0.058105, 0.095337, 0.021984, 0.008340, 0.999998, -0.000434, -0.001758, -0.000698, 70.505417, -76.213445, -161.992608, , , 0.000000, , , 
28591, , 9.649947, 1.958819, 0.442735, -0.277807, -0.321675, 0.034837, -0.085020, -0.330705, -0.130784, -0.844971, 0.210205, -0.060059, 0.096505, 0.019527, 0.004579, 0.999998, -0.000425, -0.001654, -0.000654, 71.290615, -76.205244, -162.851958, , , 0.000000, , , 
28592, , 9.793063, 1.917067, 0.311631, -0.364274, -0.434233, 0.155010, 0.004361, -0.298256, -0.117216, -0.842773, 0.216553, -0.058105, 0.097937, 0.019113, 0.003263, 0.999999, 0.000022, -0.001491, -0.000586, 71.962385, -76.192205, -163.533630, , , 0.000000, , , 
28593, , 9.934865, 2.235134, 0.354456, -0.096771, -0.384086, 0.368966, 0.047832, -0.254685, -0.103174, -0.844971, 0.218750, -0.049316, 0.099356, 0.022299, 0.003676, 0.999999, 0.000239, -0.001273, -0.000516, 72.632381, -76.180812, -164.196013, , , 0.000000, , , 
28594, , 9.786633, 2.203096, 0.023424, -0.107120, -0.682120, 0.195087, 0.041799, -0.213986, -0.100446, -0.844971, 0.214355, -0.047119, 0.097877, 0.021982, 0.000344, 0.999999, 0.000209, -0.001070, -0.000502, 73.116198, -76.172171, -164.659322, , , 0.000000, , , 
28595, , 9.893813, 2.147694, 0.417459, -0.187523, -0.274050, 0.314706, 0.061572, -0.161751, -0.089907, -0.847168, 0.212158, -0.049072, 0.098944, 0.021431, 0.004261, 1.000000, 0.000308, -0.000809, -0.000450, 73.575398, -76.149987, -165.096557, , , 0.000000, , , 
28596, , 9.944903, 2.623165, 0.198547, 0.252567, -0.497871, 0.459110, 0.060100, -0.122048, -0.076365, -0.840332, 0.208008, -0.046875, 0.099458, 0.026193, 0.002054, 1.000000, 0.000301, -0.000610, -0.000382, 73.876346, -76.133570, -165.360526, , , 0.000000, , , 
28597, , 9.916271, 2.585187, -0.133830, 0.208920, -0.815266, 0.401284, -0.033617, -0.091076, -0.070676, -0.847168, 0.207764, -0.044678, 0.099172, 0.025817, -0.001297, 1.000000, -0.000168, -0.000455, -0.000353, 74.108520, -76.109672, -165.620149, , , 0.000000, , , 
28598, , 9.796647, 2.169075, 0.191234, -0.167562, -0.465645, 0.210828, -0.041342, -0.044067, -0.051328, -0.844971, 0.212158, -0.038330, 0.097972, 0.021666, 0.001929, 1.000000, -0.000207, -0.000220, -0.000257, 74.177020, -76.087817, -165.713045, , , 0.000000, , , 
28599, , 9.594732, 2.203850, 0.344579, -0.087515, -0.299556, 0.032981, 0.046715, 0.003181, -0.025089, -0.847168, 0.212158, -0.044922, 0.095950, 0.022026, 0.003449, 1.000000, 0.000234, 0.000016, -0.000125, 74.215449, -76.074113, -165.725669, , , 0.000000, , , 
28600, , 9.546091, 2.242022, 0.385613, -0.038343, -0.256751, -0.002701, 0.120535, 0.023576, -0.010034, -0.844971, 0.212158, -0.042725, 0.095462, 0.022413, 0.003858, 1.000000, 0.000603, 0.000118, -0.000050, 74.218050, -76.075343, -165.645869, , , 0.000000, , , 
28601, , 9.486390, 2.384720, 0.594591, 0.116734, -0.048754, -0.013911, 0.148593, 0.035172, -0.001628, -0.849365, 0.207764, -0.049072, 0.094865, 0.023842, 0.005947, 1.000000, 0.000743, 0.000176, -0.000008, 74.228805, -76.069653, -165.569843, , , 0.000000, , , 
28602, , 9.559446, 2.544582, 0.685192, 0.256846, 0.030138, 0.099957, 0.125697, 0.054292, 0.004470, -0.844971, 0.214355, -0.047119, 0.095596, 0.025444, 0.006842, 1.000000, 0.000628, 0.000271, 0.000022, 74.137354, -76.067676, -165.390884, , , 0.000000, , , 
28603, , 9.422637, 2.482007, 0.511128, 0.225406, -0.135416, -0.058788, 0.087650, 0.047267, 0.008381, -0.844971, 0.209961, -0.044678, 0.094227, 0.024822, 0.005100, 1.000000, 0.000438, 0.000236, 0.000042, 74.079787, -76.065590, -165.280424, , , 0.000000, , , 
28604, , 9.439322, 2.418049, 0.732464, 0.164503, 0.083384, -0.042823, 0.027002, 0.023642, 0.007882, -0.847168, 0.209961, -0.049072, 0.094393, 0.024183, 0.007317, 1.000000, 0.000135, 0.000118, 0.000039, 74.004393, -76.075588, -165.176676, , , 0.000000, , , 
28605, , 9.526391, 2.213903, 0.712234, -0.053818, 0.061842, -0.006870, -0.019863, 0.015720, 0.006394, -0.847168, 0.212158, -0.042725, 0.095264, 0.022143, 0.007113, 1.000000, -0.000099, 0.000079, 0.000032, 73.956263, -76.077398, -165.139402, , , 0.000000, , , 
28606, , 9.590527, 2.008471, 0.666069, -0.267115, 0.015124, 0.004860, -0.008358, 0.011756, 0.007495, -0.849609, 0.212158, -0.049072, 0.095905, 0.020089, 0.006654, 1.000000, -0.000042, 0.000059, 0.000037, 73.895330, -76.085718, -165.069197, , , 0.000000, , , 
28607, , 9.611271, 2.047325, 0.785314, -0.231489, 0.131246, 0.041954, 0.051747, 0.009796, 0.017692, -0.847168, 0.214355, -0.049316, 0.096111, 0.020480, 0.007854, 1.000000, 0.000259, 0.000049, 0.000088, 73.893919, -76.094712, -165.037780, , , 0.000000, , , 
28608, , 9.612553, 2.228577, 0.452190, -0.056209, -0.207699, 0.062833, 0.090986, 0.019217, 0.020428, -0.842529, 0.212158, -0.044678, 0.096124, 0.022294, 0.004523, 1.000000, 0.000455, 0.000096, 0.000102, 73.839304, -76.110447, -164.911625, , , 0.000000, , , 
28609, , 9.572913, 2.231993, 0.602197, -0.040442, -0.054527, 0.035180, 0.092513, 0.002008, 0.019737, -0.847168, 0.209961, -0.049072, 0.095727, 0.022327, 0.006031, 1.000000, 0.000463, 0.000010, 0.000099, 73.876845, -76.121852, -164.896261, , , 0.000000, , , 
28610, , 9.667954, 2.248773, 0.723936, -0.041819, 0.061228, 0.139443, 0.084123, 0.010534, 0.029373, -0.847168, 0.207764, -0.046875, 0.096677, 0.022499, 0.007244, 1.000000, 0.000421, 0.000053, 0.000147, 73.858545, -76.142241, -164.819786, , , 0.000000, , , 
28611, , 9.678752, 2.463333, 1.053652, 0.169073, 0.381723, 0.221361, 0.078934, 0.084992, 0.018763, -0.844727, 0.203613, -0.048828, 0.096790, 0.024638, 0.010505, 1.000000, 0.000395, 0.000425, 0.000094, 73.703621, -76.139858, -164.614194, , , 0.000000, , , 
28612, , 9.201318, 2.447182, 0.629857, 0.260108, -0.017814, -0.274255, 0.038906, 0.085740, 0.008285, -0.844971, 0.209961, -0.053467, 0.092015, 0.024474, 0.006264, 1.000000, 0.000195, 0.000429, 0.000041, 73.514840, -76.124999, -164.397064, , , 0.000000, , , 
28613, , 9.232207, 2.542302, 0.834749, 0.347245, 0.176090, -0.208409, -0.038171, 0.053119, -0.003829, -0.842529, 0.212158, -0.049072, 0.092325, 0.025423, 0.008318, 1.000000, -0.000191, 0.000266, -0.000019, 73.378847, -76.115076, -164.280057, , , 0.000000, , , 
28614, , 9.269862, 2.249835, 0.797334, 0.054540, 0.136449, -0.241572, -0.074672, 0.033920, -0.005739, -0.840332, 0.212402, -0.051270, 0.092701, 0.022499, 0.007949, 1.000000, -0.000373, 0.000170, -0.000029, 73.225958, -76.109857, -164.162126, , , 0.000000, , , 
28615, , 9.436309, 2.197203, 0.725285, -0.035735, 0.051113, -0.097041, -0.092909, 0.009703, -0.009014, -0.849609, 0.214355, -0.047119, 0.094364, 0.021971, 0.007238, 1.000000, -0.000465, 0.000049, -0.000045, 73.158367, -76.104180, -164.147871, , , 0.000000, , , 
28616, , 9.626992, 2.142921, 0.769018, -0.130880, 0.080370, 0.078667, -0.078452, 0.005451, -0.009750, -0.847168, 0.207764, -0.053467, 0.096271, 0.021428, 0.007679, 1.000000, -0.000392, 0.000027, -0.000049, 73.082919, -76.106370, -164.104273, , , 0.000000, , , 
28617, , 9.698254, 2.232931, 0.820298, -0.059325, 0.121206, 0.172140, -0.053634, 0.035220, -0.003103, -0.847168, 0.212158, -0.053467, 0.096984, 0.022330, 0.008180, 1.000000, -0.000268, 0.000176, -0.000016, 72.977224, -76.099710, -164.027575, , , 0.000000, , , 
28618, , 9.542961, 2.231802, 0.847644, -0.024067, 0.151080, 0.023173, -0.022127, 0.065633, -0.001891, -0.840332, 0.210205, -0.053467, 0.095433, 0.022318, 0.008443, 1.000000, -0.000111, 0.000328, -0.000009, 72.771762, -76.086236, -163.822950, , , 0.000000, , , 
28619, , 9.324607, 2.379469, 0.902638, 0.170772, 0.209059, -0.150801, -0.025656, 0.085630, 0.003492, -0.847168, 0.207764, -0.049072, 0.093250, 0.023797, 0.008983, 1.000000, -0.000128, 0.000428, 0.000017, 72.566283, -76.074452, -163.626911, , , 0.000000, , , 
28620, , 9.289689, 2.273702, 0.599561, 0.073776, -0.096247, -0.230787, -0.023431, 0.056737, 0.009714, -0.840332, 0.212402, -0.051270, 0.092897, 0.022742, 0.005967, 1.000000, -0.000117, 0.000284, 0.000049, 72.395889, -76.069905, -163.464480, , , 0.000000, , , 
28621, , 9.421686, 2.272570, 0.557272, 0.042868, -0.152341, -0.106079, -0.040719, 0.033580, 0.008435, -0.842773, 0.218750, -0.049316, 0.094217, 0.022731, 0.005552, 1.000000, -0.000204, 0.000168, 0.000042, 72.293142, -76.069593, -163.383159, , , 0.000000, , , 
28622, , 9.465921, 2.204373, 0.570743, -0.030058, -0.143757, -0.077848, -0.036565, 0.019659, 0.010107, -0.847168, 0.209961, -0.053467, 0.094659, 0.022050, 0.005694, 1.000000, -0.000183, 0.000098, 0.000051, 72.198914, -76.084973, -163.295707, , , 0.000000, , , 
28623, , 9.514273, 2.219294, 0.644585, -0.024779, -0.075775, -0.022090, -0.045281, 0.002457, 0.005316, -0.844971, 0.214355, -0.053711, 0.095142, 0.022197, 0.006440, 1.000000, -0.000226, 0.000012, 0.000027, 72.164045, -76.088448, -163.287007, , , 0.000000, , , 
28624, , 9.590851, 2.085203, 0.607363, -0.171405, -0.117083, 0.018808, -0.048892, 0.003096, 0.009723, -0.847168, 0.209961, -0.046875, 0.095908, 0.020858, 0.006067, 1.000000, -0.000244, 0.000015, 0.000049, 72.086489, -76.095926, -163.226914, , , 0.000000, , , 
28625, , 9.625141, 2.188346, 0.919963, -0.074066, 0.187333, 0.098818, -0.013801, 0.026424, 0.010928, -0.844971, 0.212158, -0.055664, 0.096251, 0.021889, 0.009185, 1.000000, -0.000069, 0.000132, 0.000055, 72.012610, -76.098237, -163.159434, , , 0.000000, , , 
28626, , 9.366761, 2.259202, 0.641305, 0.052844, -0.078261, -0.156469, 0.017237, 0.040973, 0.015434, -0.847412, 0.216553, -0.053711, 0.093667, 0.022599, 0.006396, 1.000000, 0.000086, 0.000205, 0.000077, 71.904454, -76.101204, -163.029541, , , 0.000000, , , 
28627, , 9.459166, 2.532389, 0.713569, 0.300226, -0.024202, 0.000940, -0.020249, 0.041773, 0.023302, -0.842529, 0.210205, -0.051270, 0.094590, 0.025336, 0.007113, 1.000000, -0.000101, 0.000209, 0.000117, 71.783999, -76.107459, -162.917882, , , 0.000000, , , 
28628, , 9.416451, 2.416104, 0.623578, 0.199670, -0.113681, -0.073942, -0.055130, 0.052243, 0.029195, -0.844971, 0.212158, -0.051270, 0.094163, 0.024176, 0.006205, 1.000000, -0.000276, 0.000261, 0.000146, 71.592586, -76.119105, -162.742543, , , 0.000000, , , 
28629, , 9.561785, 2.432240, 0.479456, 0.183765, -0.274846, 0.059703, -0.080584, 0.053564, 0.030484, -0.844971, 0.212158, -0.051270, 0.095615, 0.024339, 0.004759, 1.000000, -0.000403, 0.000268, 0.000152, 71.405893, -76.126987, -162.598264, , , 0.000000, , , 
28630, , 9.736437, 2.219377, 0.458157, -0.059752, -0.310696, 0.178991, -0.135275, 0.063403, 0.029336, -0.847412, 0.216553, -0.051514, 0.097363, 0.022211, 0.004536, 1.000000, -0.000676, 0.000317, 0.000147, 71.160981, -76.134125, -162.417049, , , 0.000000, , , 
28631, , 9.796352, 2.105138, 0.534648, -0.180059, -0.245015, 0.216944, -0.135608, 0.074806, 0.030019, -0.851807, 0.214355, -0.055908, 0.097962, 0.021070, 0.005296, 1.000000, -0.000678, 0.000374, 0.000150, 70.896043, -76.137527, -162.224653, , , 0.000000, , , 
28632, , 9.862114, 2.167690, 0.463387, -0.130590, -0.334853, 0.289080, -0.144163, 0.094542, 0.030170, -0.847168, 0.209961, -0.053467, 0.098620, 0.021695, 0.004572, 1.000000, -0.000721, 0.000473, 0.000151, 70.562417, -76.140385, -161.945049, , , 0.000000, , , 
28633, , 9.929715, 2.170728, 0.464147, -0.139413, -0.353194, 0.355033, -0.172016, 0.118165, 0.029536, -0.844971, 0.214355, -0.055908, 0.099297, 0.021726, 0.004564, 0.999999, -0.000860, 0.000591, 0.000148, 70.181884, -76.134677, -161.655068, , , 0.000000, , , 
28634, , 9.746230, 2.189286, 0.547927, -0.074382, -0.273639, 0.187400, -0.155069, 0.144489, 0.038924, -0.844971, 0.214355, -0.049316, 0.097462, 0.021916, 0.005392, 0.999999, -0.000775, 0.000722, 0.000195, 69.733935, -76.126186, -161.279338, , , 0.000000, , , 
28635, , 9.627269, 2.329289, 0.573573, 0.093900, -0.262382, 0.105034, -0.150406, 0.163932, 0.041391, -0.840332, 0.218750, -0.053711, 0.096273, 0.023317, 0.005639, 0.999999, -0.000752, 0.000820, 0.000207, 69.257376, -76.116578, -160.877665, , , 0.000000, , , 
28636, , 9.584832, 2.327065, 0.745418, 0.110616, -0.108168, 0.077505, -0.183119, 0.200007, 0.044597, -0.847412, 0.214355, -0.060059, 0.095851, 0.023299, 0.007337, 0.999999, -0.000916, 0.001000, 0.000223, 68.695842, -76.109031, -160.391547, , , 0.000000, , , 
28637, , 9.478211, 2.289085, 0.656175, 0.101287, -0.210554, -0.042717, -0.149879, 0.211246, 0.052174, -0.842773, 0.214355, -0.055664, 0.094783, 0.022920, 0.006444, 0.999999, -0.000749, 0.001056, 0.000261, 68.109992, -76.093406, -159.876936, , , 0.000000, , , 
28638, , 9.605327, 2.375587, 0.751522, 0.164452, -0.154832, 0.107969, -0.177156, 0.230924, 0.054799, -0.847412, 0.218750, -0.062500, 0.096055, 0.023789, 0.007383, 0.999999, -0.000886, 0.001155, 0.000274, 67.461626, -76.072684, -159.306013, , , 0.000000, , , 
28639, , 9.681034, 2.359782, 0.804733, 0.139500, -0.135024, 0.182352, -0.214278, 0.237238, 0.059172, -0.844971, 0.218750, -0.064697, 0.096813, 0.023635, 0.007907, 0.999999, -0.001071, 0.001186, 0.000296, 66.780239, -76.052193, -158.730894, , , 0.000000, , , 
28640, , 9.651107, 2.311747, 0.746378, 0.105764, -0.218495, 0.136489, -0.259037, 0.249717, 0.063314, -0.845215, 0.223145, -0.058350, 0.096513, 0.023158, 0.007313, 0.999998, -0.001295, 0.001249, 0.000317, 66.019252, -76.030951, -158.084559, , , 0.000000, , , 
28641, , 9.692207, 2.162061, 0.835217, -0.039694, -0.158517, 0.151457, -0.298372, 0.269980, 0.062868, -0.845215, 0.223145, -0.064697, 0.096926, 0.021663, 0.008189, 0.999998, -0.001492, 0.001350, 0.000314, 65.221648, -76.001037, -157.439201, , , 0.000000, , , 
28642, , 9.756722, 2.146665, 0.836354, -0.059528, -0.195590, 0.210255, -0.277491, 0.289952, 0.070612, -0.842773, 0.216797, -0.068848, 0.097572, 0.021513, 0.008192, 0.999998, -0.001387, 0.001450, 0.000353, 64.391766, -75.978781, -156.718038, , , 0.000000, , , 
28643, , 9.701266, 2.139695, 0.759603, -0.048147, -0.301623, 0.146050, -0.274723, 0.309815, 0.074422, -0.838135, 0.218994, -0.069092, 0.097016, 0.021443, 0.007416, 0.999998, -0.001374, 0.001549, 0.000372, 63.520429, -75.940344, -155.982539, , , 0.000000, , , 
28644, , 9.777315, 2.004162, 0.868019, -0.185477, -0.231901, 0.201188, -0.259862, 0.334876, 0.084562, -0.838135, 0.223389, -0.073486, 0.097779, 0.020094, 0.008490, 0.999998, -0.001299, 0.001674, 0.000423, 62.592500, -75.895496, -155.180714, , , 0.000000, , , 
28645, , 9.790094, 2.009024, 0.896665, -0.172992, -0.245800, 0.217049, -0.206013, 0.393371, 0.104783, -0.845215, 0.225342, -0.069336, 0.097908, 0.020151, 0.008753, 0.999997, -0.001030, 0.001967, 0.000524, 61.570130, -75.844179, -154.248581, , , 0.000000, , , 
28646, , 9.614569, 2.249410, 0.770417, 0.106987, -0.409946, 0.082445, -0.174455, 0.417928, 0.105615, -0.847412, 0.225342, -0.073730, 0.096150, 0.022551, 0.007484, 0.999997, -0.000872, 0.002090, 0.000528, 60.519495, -75.788926, -153.249693, , , 0.000000, , , 
28647, , 9.695247, 2.218072, 0.994122, 0.075903, -0.241502, 0.179392, -0.214298, 0.444452, 0.096673, -0.842773, 0.221191, -0.080078, 0.096963, 0.022238, 0.009702, 0.999997, -0.001071, 0.002222, 0.000483, 59.417693, -75.710621, -152.240000, , , 0.000000, , , 
28648, , 9.678258, 2.122367, 1.009930, -0.003771, -0.266845, 0.143298, -0.269367, 0.455777, 0.096858, -0.838379, 0.225586, -0.080078, 0.096795, 0.021284, 0.009850, 0.999996, -0.001347, 0.002279, 0.000484, 58.287073, -75.624834, -151.213901, , , 0.000000, , , 
28649, , 9.559252, 1.998244, 0.908989, -0.092790, -0.395184, -0.013017, -0.296477, 0.461009, 0.102139, -0.840576, 0.225586, -0.088867, 0.095603, 0.020044, 0.008840, 0.999996, -0.001482, 0.002305, 0.000511, 57.125355, -75.534357, -150.190192, , , 0.000000, , , 
28650, , 9.582736, 1.973279, 1.136346, -0.102503, -0.222061, 0.033829, -0.318267, 0.461166, 0.111434, -0.838379, 0.229980, -0.091309, 0.095842, 0.019804, 0.011111, 0.999996, -0.001591, 0.002306, 0.000557, 55.955784, -75.444610, -149.160787, , , 0.000000, , , 
28651, , 9.606560, 2.113330, 1.234833, 0.044495, -0.189652, 0.098861, -0.352855, 0.466307, 0.106539, -0.838379, 0.227783, -0.093262, 0.096083, 0.021206, 0.012087, 0.999996, -0.001764, 0.002332, 0.000533, 54.774774, -75.344147, -148.149659, , , 0.000000, , , 
28652, , 9.540644, 2.104627, 1.488519, 0.073393, 0.016279, 0.069778, -0.412566, 0.473453, 0.103980, -0.838379, 0.229980, -0.095703, 0.095430, 0.021126, 0.014616, 0.999995, -0.002063, 0.002367, 0.000520, 53.558164, -75.235970, -147.126098, , , 0.000000, , , 
28653, , 9.836105, 1.815443, 1.372016, -0.265041, -0.173895, 0.278221, -0.460460, 0.490740, 0.098987, -0.836182, 0.229980, -0.102051, 0.098385, 0.018234, 0.013437, 0.999994, -0.002302, 0.002454, 0.000495, 52.315175, -75.112902, -146.113605, , , 0.000000, , , 
28654, , 9.571372, 2.186575, 0.708475, 0.132050, -0.879600, -0.009485, -0.420570, 0.522746, 0.110455, -0.836182, 0.229980, -0.099854, 0.095720, 0.021933, 0.006788, 0.999994, -0.002103, 0.002614, 0.000552, 51.040621, -74.976415, -145.038129, , , 0.000000, , , 
28655, , 9.451837, 2.437640, 1.017336, 0.429000, -0.639583, -0.028984, -0.485874, 0.520075, 0.104253, -0.833984, 0.238770, -0.102539, 0.094532, 0.024450, 0.009868, 0.999994, -0.002429, 0.002600, 0.000521, 49.767239, -74.833614, -144.007960, , , 0.000000, , , 
28656, , 9.547235, 2.602540, 1.337050, 0.599952, -0.417173, 0.146040, -0.538269, 0.533892, 0.108832, -0.833740, 0.234375, -0.111084, 0.095493, 0.026113, 0.013045, 0.999993, -0.002691, 0.002669, 0.000544, 48.468458, -74.687788, -142.965361, , , 0.000000, , , 
28657, , 9.608259, 2.393587, 1.367978, 0.398707, -0.444683, 0.165395, -0.623198, 0.554657, 0.119915, -0.833984, 0.238770, -0.108887, 0.096106, 0.024035, 0.013338, 0.999991, -0.003116, 0.002773, 0.000600, 47.086181, -74.526199, -141.902388, , , 0.000000, , , 
28658, , 9.723294, 1.785565, 1.423961, -0.199308, -0.417479, 0.164481, -0.668921, 0.582922, 0.135104, -0.831543, 0.240967, -0.111328, 0.097262, 0.017968, 0.013896, 0.999990, -0.003345, 0.002915, 0.000676, 45.645101, -74.354584, -140.793592, , , 0.000000, , , 
28659, , 9.704803, 1.305364, 1.493599, -0.641821, -0.365166, 0.065182, -0.574491, 0.616500, 0.164523, -0.829346, 0.240967, -0.122070, 0.097083, 0.013176, 0.014599, 0.999991, -0.002872, 0.003082, 0.000823, 44.191034, -74.172078, -139.625257, , , 0.000000, , , 
28660, , 9.619999, 1.548877, 1.527998, -0.365316, -0.412611, 0.034853, -0.405047, 0.620991, 0.201229, -0.833984, 0.238770, -0.119873, 0.096231, 0.015616, 0.014950, 0.999993, -0.002025, 0.003105, 0.001006, 42.804393, -73.997645, -138.414958, , , 0.000000, , , 
28661, , 9.541570, 2.057021, 2.168784, 0.215249, 0.098928, 0.183309, -0.321399, 0.642029, 0.221610, -0.831787, 0.245361, -0.124512, 0.095462, 0.020710, 0.021348, 0.999993, -0.001607, 0.003210, 0.001108, 41.435787, -73.810982, -137.182545, , , 0.000000, , , 
28662, , 9.260281, 1.741417, 2.756269, 0.031159, 0.692418, -0.019757, -0.321376, 0.654074, 0.232067, -0.824951, 0.249756, -0.131104, 0.092672, 0.017566, 0.027232, 0.999993, -0.001607, 0.003270, 0.001160, 40.095061, -73.617291, -135.963081, , , 0.000000, , , 
28663, , 9.484641, 1.429583, 3.242740, -0.257254, 1.088162, 0.250450, -0.270031, 0.656043, 0.253202, -0.822510, 0.251953, -0.131104, 0.094934, 0.014459, 0.032097, 0.999993, -0.001350, 0.003280, 0.001266, 38.751709, -73.420054, -134.723889, , , 0.000000, , , 
28664, , 8.847163, 1.891823, 2.808045, 0.309690, 0.670042, -0.368582, -0.240689, 0.656803, 0.256673, -0.820312, 0.254150, -0.140137, 0.088539, 0.019065, 0.027767, 0.999993, -0.001203, 0.003284, 0.001283, 37.450804, -73.223892, -133.496266, , , 0.000000, , , 
28665, , 8.907022, 1.243445, 3.051112, -0.293972, 0.911921, -0.364293, -0.239405, 0.544169, 0.246088, -0.829590, 0.251953, -0.139893, 0.089137, 0.012580, 0.030254, 0.999995, -0.001197, 0.002721, 0.001230, 36.320741, -73.060146, -132.459152, , , 0.000000, , , 
28666, , 8.758525, 1.499356, 3.256493, 0.022099, 1.057549, -0.408145, -0.091101, 0.522852, 0.253924, -0.818115, 0.252197, -0.146484, 0.087651, 0.015120, 0.032329, 0.999996, -0.000456, 0.002614, 0.001270, 35.323053, -72.907698, -131.456309, , , 0.000000, , , 
28667, , 8.802454, 1.685868, 2.422880, 0.144807, 0.167401, -0.531175, -0.101621, 0.507309, 0.241011, -0.818115, 0.258789, -0.151123, 0.088065, 0.016977, 0.023997, 0.999996, -0.000508, 0.002537, 0.001205, 34.357537, -72.749014, -130.507053, , , 0.000000, , , 
28668, , 9.533764, 1.263999, 1.468986, -0.470180, -0.916273, -0.138630, -0.063821, 0.522081, 0.236101, -0.815674, 0.256592, -0.153076, 0.095361, 0.012757, 0.014437, 0.999996, -0.000319, 0.002610, 0.001181, 33.437619, -72.578143, -129.582278, , , 0.000000, , , 
28669, , 10.754940, 0.532900, 0.987851, -1.437531, -1.626281, 0.780562, 0.123323, 0.543579, 0.279254, -0.813477, 0.260986, -0.159912, 0.107568, 0.005473, 0.009590, 0.999995, 0.000617, 0.002718, 0.001396, 32.542161, -72.404991, -128.569598, , , 0.000000, , , 
28670, , 10.817470, 0.718120, 1.600471, -1.197653, -1.137847, 1.020842, 0.350308, 0.644612, 0.305871, -0.818115, 0.263184, -0.166504, 0.108214, 0.007319, 0.015669, 0.999992, 0.001752, 0.003223, 0.001529, 31.677154, -72.188863, -127.453506, , , 0.000000, , , 
28671, , 9.397732, 1.253962, 2.096283, -0.354882, -0.448085, -0.119540, 0.495511, 0.731643, 0.309975, -0.811279, 0.265381, -0.170898, 0.094034, 0.012634, 0.020650, 0.999989, 0.002478, 0.003658, 0.001550, 30.817606, -71.923532, -126.251965, , , 0.000000, , , 
28672, , 8.784159, 2.217141, 3.032538, 0.775738, 0.435261, -0.300486, 0.414612, 0.706793, 0.275179, -0.806641, 0.267578, -0.175293, 0.087918, 0.022230, 0.030061, 0.999991, 0.002073, 0.003534, 0.001376, 30.030216, -71.659912, -125.164417, , , 0.000000, , , 
28673, , 8.473651, 2.558330, 3.773818, 1.220923, 1.133446, -0.335668, 0.143220, 0.647623, 0.233269, -0.809082, 0.267578, -0.181885, 0.084828, 0.025655, 0.037482, 0.999994, 0.000716, 0.003238, 0.001166, 29.212225, -71.404327, -124.215875, , , 0.000000, , , 
28674, , 8.136438, 2.313179, 4.488296, 1.097637, 1.882458, -0.488068, -0.171569, 0.506532, 0.205703, -0.811523, 0.271973, -0.190918, 0.081454, 0.023254, 0.044657, 0.999996, -0.000858, 0.002533, 0.001029, 28.407927, -71.216773, -123.463358, , , 0.000000, , , 
28675, , 7.631636, 2.403355, 4.423260, 1.292348, 1.898430, -0.963462, -0.334698, 0.409270, 0.175000, -0.804688, 0.276367, -0.188721, 0.076385, 0.024174, 0.044036, 0.999996, -0.001673, 0.002046, 0.000875, 27.631695, -71.057811, -122.846103, , , 0.000000, , , 
28676, , 8.149466, 2.088617, 3.334886, 0.845035, 0.709195, -0.830464, -0.461591, 0.370779, 0.163001, -0.800049, 0.274414, -0.195312, 0.081539, 0.021029, 0.033149, 0.999995, -0.002308, 0.001854, 0.000815, 26.843262, -70.916696, -122.277544, , , 0.000000, , , 
28677, , 9.813493, 1.041631, 2.323523, -0.520324, -0.638073, 0.292279, -0.339219, 0.374854, 0.183088, -0.797607, 0.278809, -0.193115, 0.098169, 0.010545, 0.023033, 0.999996, -0.001696, 0.001874, 0.000915, 26.099989, -70.772140, -121.696833, , , 0.000000, , , 
28678, , 10.716346, -0.180664, 1.846771, -1.890572, -1.246954, 0.824694, -0.123041, 0.442359, 0.206011, -0.802246, 0.276611, -0.201904, 0.107206, -0.001685, 0.018232, 0.999997, -0.000615, 0.002212, 0.001030, 25.407152, -70.597534, -121.040910, , , 0.000000, , , 
28679, , 10.393179, -0.986905, 1.274237, -2.651638, -1.659518, 0.228742, 0.327452, 0.542736, 0.234980, -0.795410, 0.276611, -0.199707, 0.103977, -0.009767, 0.012444, 0.999994, 0.001637, 0.002714, 0.001175, 24.875060, -70.374148, -120.277719, , , 0.000000, , , 
28680, , 9.917061, 0.901758, 1.711843, -0.671949, -1.379568, 0.174139, 0.703214, 0.575189, 0.289778, -0.800049, 0.283203, -0.206543, 0.099206, 0.009102, 0.016865, 0.999989, 0.003516, 0.002876, 0.001449, 24.485853, -70.145952, -119.441214, , , 0.000000, , , 
28681, , 9.232677, 3.073782, 2.933446, 1.662265, -0.296858, 0.209498, 0.441363, 0.540290, 0.246054, -0.795410, 0.276611, -0.212646, 0.092368, 0.030787, 0.029153, 0.999993, 0.002207, 0.002701, 0.001230, 24.031929, -69.922547, -118.689591, , , 0.000000, , , 
28682, , 8.814589, 2.614940, 3.580837, 1.325187, 0.446100, -0.045297, -0.118898, 0.527450, 0.185711, -0.795410, 0.283203, -0.219482, 0.088216, 0.026252, 0.035560, 0.999996, -0.000594, 0.002637, 0.000929, 23.384102, -69.696794, -118.065630, , , 0.000000, , , 
28683, , 8.606761, 1.400238, 3.786425, 0.191795, 0.777633, -0.339976, -0.293011, 0.487667, 0.170309, -0.795410, 0.283203, -0.221680, 0.086148, 0.014131, 0.037634, 0.999996, -0.001465, 0.002438, 0.000852, 22.678336, -69.478740, -117.492097, , , 0.000000, , , 
28684, , 8.478395, 1.563832, 4.220485, 0.418081, 1.162266, -0.293476, -0.307849, 0.429253, 0.147464, -0.795654, 0.285400, -0.223877, 0.084863, 0.015766, 0.041999, 0.999996, -0.001539, 0.002146, 0.000737, 22.059145, -69.286874, -117.013230, , , 0.000000, , , 
28685, , 8.846859, 1.373041, 3.988196, 0.178253, 0.802022, -0.046284, -0.384913, 0.392344, 0.127042, -0.786377, 0.287598, -0.221924, 0.088538, 0.013863, 0.039682, 0.999996, -0.001925, 0.001962, 0.000635, 21.438673, -69.105950, -116.585793, , , 0.000000, , , 
28686, , 9.463277, 0.972299, 3.801091, -0.305898, 0.431886, 0.418001, -0.366395, 0.354878, 0.120462, -0.793457, 0.289795, -0.226318, 0.094694, 0.009849, 0.037825, 0.999997, -0.001832, 0.001774, 0.000602, 20.883885, -68.947359, -116.212800, , , 0.000000, , , 
28687, , 9.678414, 0.355850, 2.703442, -1.001346, -0.639911, 0.172030, -0.307162, 0.382380, 0.107572, -0.786377, 0.294189, -0.226318, 0.096834, 0.003652, 0.026844, 0.999997, -0.001536, 0.001912, 0.000538, 20.356561, -68.764919, -115.836504, , , 0.000000, , , 
28688, , 9.305538, -0.215299, 1.926156, -1.546413, -1.221111, -0.513934, -0.042921, 0.430053, 0.119869, -0.786377, 0.294189, -0.232910, 0.093098, -0.002093, 0.019062, 0.999997, -0.000215, 0.002150, 0.000599, 19.956907, -68.565423, -115.424668, , , 0.000000, , , 
28689, , 8.835603, 1.355559, 2.787069, 0.138099, -0.481293, -0.462695, 0.258797, 0.423132, 0.145738, -0.791260, 0.296387, -0.237305, 0.088405, 0.013584, 0.027701, 0.999997, 0.001294, 0.002116, 0.000729, 19.695118, -68.366604, -114.984232, , , 0.000000, , , 
28690, , 8.985299, 2.418218, 3.797500, 1.230270, 0.256506, 0.158515, 0.038488, 0.426031, 0.112152, -0.781982, 0.298584, -0.237549, 0.089920, 0.024225, 0.037788, 0.999998, 0.000192, 0.002130, 0.000561, 19.363076, -68.164148, -114.590822, , , 0.000000, , , 
28691, , 8.747807, 1.780229, 4.197376, 0.671863, 0.740520, 0.001148, -0.216368, 0.400247, 0.101042, -0.781982, 0.296631, -0.241699, 0.087553, 0.017892, 0.041779, 0.999997, -0.001082, 0.002001, 0.000505, 18.914009, -67.967415, -114.240764, , , 0.000000, , , 
28692, , 8.753462, 1.119650, 4.762045, 0.072004, 1.301170, 0.129918, -0.305503, 0.335160, 0.090260, -0.781982, 0.296631, -0.243896, 0.087609, 0.011309, 0.047456, 0.999997, -0.001528, 0.001676, 0.000451, 18.463285, -67.810112, -113.937156, , , 0.000000, , , 
28693, , 8.604964, 0.939334, 4.778693, -0.064821, 1.353464, -0.018430, -0.325103, 0.288895, 0.054917, -0.784424, 0.302979, -0.248535, 0.086116, 0.009495, 0.047647, 0.999998, -0.001626, 0.001444, 0.000275, 18.074693, -67.663748, -113.718951, , , 0.000000, , , 
28694, , 8.650322, 1.015171, 4.348202, -0.011571, 0.898437, -0.119489, -0.379321, 0.230847, 0.019600, -0.781982, 0.302979, -0.246338, 0.086552, 0.010243, 0.043363, 0.999998, -0.001897, 0.001154, 0.000098, 17.733329, -67.544466, -113.575190, , , 0.000000, , , 
28695, , 8.795781, 0.850117, 4.047982, -0.203959, 0.564080, -0.111411, -0.455342, 0.172783, -0.023233, -0.781982, 0.296631, -0.243896, 0.087994, 0.008583, 0.040384, 0.999997, -0.002277, 0.000864, -0.000116, 17.428321, -67.447027, -113.527853, , , 0.000000, , , 
28696, , 9.183236, 0.497944, 3.452649, -0.643999, -0.098856, -0.010850, -0.466754, 0.148264, -0.030076, -0.779785, 0.302979, -0.244141, 0.091859, 0.005046, 0.034447, 0.999997, -0.002334, 0.000741, -0.000150, 17.148803, -67.365827, -113.506882, , , 0.000000, , , 
28697, , 9.498586, 0.567784, 2.832334, -0.665334, -0.811747, 0.059800, -0.337298, 0.147781, -0.014804, -0.781982, 0.300781, -0.239746, 0.095007, 0.005718, 0.028244, 0.999998, -0.001686, 0.000739, -0.000074, 16.913082, -67.283352, -113.461283, , , 0.000000, , , 
28698, , 9.375914, 1.061978, 2.726536, -0.163945, -0.949494, -0.038174, -0.131120, 0.180526, 0.021331, -0.784424, 0.305176, -0.246338, 0.093783, 0.010648, 0.027174, 0.999999, -0.000656, 0.000903, 0.000107, 16.746149, -67.197392, -113.353266, , , 0.000000, , , 
28699, , 9.151528, 1.516961, 3.123796, 0.355789, -0.583995, -0.048361, -0.027279, 0.206373, 0.054467, -0.784180, 0.298584, -0.246094, 0.091543, 0.015199, 0.031141, 0.999999, -0.000136, 0.001032, 0.000272, 16.576681, -67.094067, -113.186757, , , 0.000000, , , 
28700, , 8.933452, 1.235355, 3.392808, 0.137936, -0.239637, -0.181108, 0.014045, 0.242228, 0.081850, -0.772705, 0.303223, -0.248535, 0.089370, 0.012388, 0.033821, 0.999999, 0.000070, 0.001211, 0.000409, 16.402747, -66.981292, -112.973473, , , 0.000000, , , 
28701, , 8.710829, 0.721090, 4.049691, -0.275964, 0.493662, -0.196107, 0.089148, 0.236869, 0.095489, -0.779785, 0.303223, -0.257324, 0.087153, 0.007234, 0.040397, 0.999999, 0.000446, 0.001184, 0.000477, 16.238696, -66.867451, -112.740075, , , 0.000000, , , 
28702, , 8.434387, 0.996804, 4.420482, 0.067821, 0.878448, -0.278703, 0.160967, 0.223681, 0.088539, -0.775146, 0.305420, -0.255127, 0.084389, 0.009970, 0.044118, 0.999999, 0.000805, 0.001118, 0.000443, 16.139032, -66.759711, -112.530294, , , 0.000000, , , 
28703, , 8.432232, 0.696274, 4.257957, -0.243059, 0.750488, -0.373662, 0.083388, 0.201765, 0.051615, -0.775146, 0.305420, -0.257324, 0.084363, 0.006967, 0.042497, 0.999999, 0.000417, 0.001009, 0.000258, 16.044058, -66.657861, -112.375315, , , 0.000000, , , 
28704, , 8.706068, 0.527385, 3.951945, -0.478090, 0.374106, -0.256376, 0.102642, 0.167941, 0.024690, -0.781982, 0.305176, -0.255127, 0.087093, 0.005264, 0.039449, 1.000000, 0.000513, 0.000840, 0.000123, 16.009920, -66.571847, -112.270473, , , 0.000000, , , 
28705, , 9.216058, 0.694791, 3.835856, -0.403651, 0.043122, 0.185684, 0.084847, 0.156022, -0.002772, -0.775146, 0.305420, -0.257324, 0.092191, 0.006930, 0.038290, 1.000000, 0.000424, 0.000780, -0.000014, 16.002995, -66.486513, -112.210365, , , 0.000000, , , 
28706, , 9.439529, 0.604238, 3.678155, -0.544851, -0.186256, 0.319788, 0.085755, 0.161012, -0.017343, -0.775146, 0.303223, -0.259521, 0.094425, 0.006018, 0.036708, 1.000000, 0.000429, 0.000805, -0.000087, 16.022278, -66.403120, -112.164215, , , 0.000000, , , 
28707, , 9.320729, 0.805554, 3.885030, -0.320450, 0.005454, 0.312312, 0.105715, 0.202099, -0.028827, -0.775146, 0.303223, -0.255127, 0.093248, 0.008022, 0.038760, 0.999999, 0.000529, 0.001010, -0.000144, 16.043855, -66.288337, -112.122096, , , 0.000000, , , 
28708, , 8.905263, 0.894254, 3.370632, -0.217877, -0.340342, -0.257520, 0.142801, 0.205540, -0.022822, -0.768311, 0.305420, -0.266113, 0.089088, 0.008908, 0.033621, 0.999999, 0.000714, 0.001028, -0.000114, 16.087688, -66.181095, -112.073689, , , 0.000000, , , 
28709, , 8.971757, 1.249282, 3.743540, 0.140455, -0.083884, -0.012666, 0.164489, 0.191210, -0.010404, -0.770508, 0.303223, -0.268066, 0.089754, 0.012457, 0.037360, 0.999999, 0.000822, 0.000956, -0.000052, 16.124050, -66.075297, -112.010857, , , 0.000000, , , 
28710, , 8.913967, 1.380962, 4.156401, 0.299902, 0.285673, 0.110516, 0.180063, 0.174863, -0.000803, -0.772705, 0.301025, -0.263672, 0.089176, 0.013772, 0.041498, 0.999999, 0.000900, 0.000874, -0.000004, 16.157140, -65.979934, -111.937268, , , 0.000000, , , 
28711, , 8.850196, 1.496576, 4.189856, 0.417755, 0.311798, 0.079170, 0.131644, 0.182714, 0.003510, -0.772705, 0.294678, -0.274414, 0.088540, 0.014940, 0.041828, 0.999999, 0.000658, 0.000914, 0.000018, 16.160867, -65.881051, -111.859207, , , 0.000000, , , 
28712, , 8.544011, 1.109109, 4.279594, 0.081185, 0.544705, -0.208425, 0.098887, 0.142684, 0.006760, -0.772949, 0.305420, -0.272705, 0.085470, 0.011073, 0.042740, 1.000000, 0.000494, 0.000713, 0.000034, 16.176379, -65.806532, -111.810567, , , 0.000000, , , 
28713, , 8.686617, 1.078760, 4.769702, 0.055586, 0.932939, 0.111909, 0.146146, 0.118499, -0.002886, -0.770508, 0.303223, -0.270264, 0.086895, 0.010752, 0.047653, 1.000000, 0.000731, 0.000592, -0.000014, 16.219516, -65.741989, -111.766509, , , 0.000000, , , 
28714, , 8.660971, 0.821038, 4.829304, -0.198094, 1.018402, 0.083387, 0.074744, 0.127817, -0.025820, -0.770264, 0.296875, -0.272217, 0.086642, 0.008181, 0.048241, 1.000000, 0.000374, 0.000639, -0.000129, 16.240917, -65.672325, -111.737113, , , 0.000000, , , 
28715, , 8.699678, 0.583454, 3.861864, -0.508345, 0.138249, -0.291066, 0.156627, 0.053945, -0.026846, -0.768066, 0.301270, -0.268066, 0.087008, 0.005793, 0.038600, 1.000000, 0.000783, 0.000270, -0.000134, 16.342085, -65.639483, -111.750128, , , 0.000000, , , 
28716, , 8.976461, 0.917701, 3.956475, -0.225128, 0.079612, 0.036967, 0.216325, 0.023743, -0.032808, -0.772705, 0.299072, -0.274658, 0.089771, 0.009119, 0.039564, 0.999999, 0.001082, 0.000119, -0.000164, 16.502241, -65.628449, -111.790924, , , 0.000000, , , 
28717, , 8.752222, 1.012055, 4.324447, -0.086023, 0.493915, -0.010896, 0.176441, -0.004865, -0.029849, -0.770508, 0.301270, -0.274658, 0.087523, 0.010069, 0.043255, 1.000000, 0.000882, -0.000024, -0.000149, 16.639282, -65.627418, -111.830876, , , 0.000000, , , 
28718, , 8.479966, 1.194735, 3.719650, 0.090464, 0.030543, -0.476528, 0.238542, -0.074672, -0.034791, -0.770508, 0.299072, -0.274658, 0.084788, 0.011888, 0.037242, 0.999999, 0.001193, -0.000373, -0.000174, 16.843356, -65.667218, -111.899836, , , 0.000000, , , 
28719, , 8.725646, 1.811622, 4.035512, 0.668881, 0.170615, -0.054220, 0.200672, -0.120441, -0.040395, -0.770264, 0.294678, -0.278809, 0.087236, 0.018058, 0.040426, 0.999999, 0.001003, -0.000602, -0.000202, 17.049939, -65.727682, -112.000845, , , 0.000000, , , 
28720, , 8.776234, 1.319259, 3.736158, 0.151666, -0.053693, -0.184827, 0.072524, -0.139792, -0.039054, -0.770264, 0.296875, -0.274414, 0.087739, 0.013162, 0.037428, 1.000000, 0.000363, -0.000699, -0.000195, 17.192437, -65.798748, -112.110483, , , 0.000000, , , 
28721, , 9.051504, 0.567535, 4.047171, -0.620394, 0.226399, 0.096664, 0.129332, -0.167833, -0.023935, -0.770264, 0.290283, -0.269775, 0.090482, 0.005638, 0.040551, 0.999999, 0.000647, -0.000839, -0.000120, 17.357468, -65.887705, -112.210635, , , 0.000000, , , 
28722, , 9.108018, 0.474200, 4.205443, -0.723817, 0.380055, 0.197218, 0.370879, -0.155013, -0.029496, -0.774902, 0.290283, -0.276367, 0.091048, 0.004650, 0.042134, 0.999998, 0.001854, -0.000775, -0.000147, 17.673382, -65.971449, -112.326226, , , 0.000000, , , 
28723, , 8.843717, 1.315461, 4.129811, 0.126464, 0.343380, 0.029219, 0.398932, -0.187527, -0.044890, -0.777100, 0.292236, -0.267822, 0.088401, 0.013052, 0.041407, 0.999998, 0.001995, -0.000938, -0.000224, 18.029166, -66.067065, -112.465955, , , 0.000000, , , 
28724, , 8.861326, 1.149658, 4.348155, -0.047555, 0.581483, 0.107535, 0.330929, -0.214265, -0.049538, -0.772461, 0.288086, -0.274170, 0.088569, 0.011403, 0.043595, 0.999998, 0.001655, -0.001071, -0.000248, 18.379996, -66.179269, -112.633775, , , 0.000000, , , 
28725, , 8.779550, 1.597529, 4.274752, 0.387651, 0.528205, 0.060343, 0.342847, -0.241986, -0.058350, -0.779541, 0.290039, -0.270020, 0.087748, 0.015876, 0.042881, 0.999998, 0.001714, -0.001210, -0.000292, 18.746929, -66.301314, -112.820557, , , 0.000000, , , 
28726, , 8.842134, 1.504517, 4.117999, 0.264354, 0.401256, 0.044991, 0.246110, -0.292867, -0.067921, -0.779297, 0.285889, -0.269775, 0.088366, 0.014964, 0.041328, 0.999998, 0.001231, -0.001464, -0.000340, 19.105681, -66.449524, -113.052956, , , 0.000000, , , 
28727, , 8.883422, 1.272360, 4.031532, 0.012942, 0.361804, 0.018698, 0.249857, -0.313972, -0.062508, -0.777100, 0.285889, -0.263184, 0.088775, 0.012645, 0.040471, 0.999998, 0.001249, -0.001570, -0.000313, 19.461832, -66.608765, -113.285654, , , 0.000000, , , 
28728, , 8.782568, 1.106855, 3.805013, -0.155822, 0.240630, -0.181777, 0.288823, -0.341408, -0.058269, -0.777100, 0.285889, -0.267578, 0.087764, 0.010988, 0.038216, 0.999997, 0.001444, -0.001707, -0.000291, 19.866294, -66.786694, -113.540902, , , 0.000000, , , 
28729, , 8.934668, 1.085659, 3.779228, -0.215054, 0.203401, -0.055550, 0.370747, -0.386749, -0.047724, -0.779297, 0.281494, -0.265137, 0.089276, 0.010765, 0.037985, 0.999996, 0.001854, -0.001934, -0.000239, 20.315645, -66.986706, -113.799003, , , 0.000000, , , 
28730, , 8.875531, 1.334389, 3.545034, 0.017372, 0.029646, -0.162737, 0.419526, -0.410045, -0.043173, -0.779541, 0.292236, -0.259033, 0.088685, 0.013250, 0.035660, 0.999996, 0.002098, -0.002050, -0.000216, 20.813214, -67.198002, -114.077068, , , 0.000000, , , 
28731, , 8.785322, 1.321661, 3.337593, 0.000004, -0.083624, -0.322640, 0.378060, -0.452180, -0.036838, -0.783936, 0.283447, -0.260986, 0.087780, 0.013137, 0.033599, 0.999996, 0.001890, -0.002261, -0.000184, 21.298143, -67.433505, -114.368365, , , 0.000000, , , 
28732, , 8.882198, 1.134690, 3.218681, -0.213294, -0.164467, -0.301215, 0.401670, -0.474775, -0.022861, -0.783936, 0.285645, -0.254395, 0.088746, 0.011272, 0.032420, 0.999995, 0.002008, -0.002374, -0.000114, 21.783447, -67.685971, -114.644398, , , 0.000000, , , 
28733, , 9.026586, 1.195075, 3.667867, -0.179966, 0.253764, -0.001283, 0.465721, -0.492728, -0.017741, -0.781738, 0.281250, -0.252197, 0.090176, 0.011857, 0.036929, 0.999994, 0.002329, -0.002464, -0.000089, 22.331865, -67.945135, -114.948997, , , 0.000000, , , 
28734, , 9.001838, 1.401091, 4.071963, 0.018053, 0.682817, 0.142721, 0.508238, -0.499893, -0.036460, -0.788574, 0.276855, -0.251953, 0.089919, 0.013891, 0.040980, 0.999994, 0.002541, -0.002499, -0.000182, 22.934585, -68.206690, -115.288207, , , 0.000000, , , 
28735, , 8.985342, 1.240978, 4.351234, -0.153965, 1.020163, 0.194552, 0.482735, -0.534152, -0.050099, -0.790771, 0.279053, -0.245605, 0.089740, 0.012282, 0.043782, 0.999993, 0.002414, -0.002671, -0.000250, 23.580416, -68.477898, -115.686029, , , 0.000000, , , 
28736, , 8.697867, 1.579671, 4.138356, 0.201955, 0.956539, -0.100937, 0.545754, -0.569911, -0.058836, -0.790771, 0.272461, -0.249756, 0.086865, 0.015658, 0.041674, 0.999992, 0.002729, -0.002850, -0.000294, 24.315450, -68.766935, -116.131859, , , 0.000000, , , 
28737, , 8.614896, 1.745447, 4.043002, 0.357228, 0.948984, -0.190821, 0.407463, -0.613688, -0.082776, -0.792969, 0.274658, -0.238770, 0.086031, 0.017336, 0.040730, 0.999993, 0.002037, -0.003068, -0.000414, 25.040110, -69.068033, -116.658835, , , 0.000000, , , 
28738, , 8.737136, 1.484432, 3.646096, 0.060287, 0.615862, -0.249647, 0.380809, -0.667023, -0.096547, -0.786133, 0.276855, -0.243408, 0.087256, 0.014732, 0.036780, 0.999993, 0.001904, -0.003335, -0.000483, 25.828594, -69.390548, -117.262472, , , 0.000000, , , 
28739, , 9.047641, 1.502560, 3.374271, 0.010707, 0.331223, -0.045758, 0.330629, -0.705259, -0.111520, -0.790771, 0.272461, -0.234375, 0.090365, 0.014919, 0.034086, 0.999992, 0.001653, -0.003526, -0.000558, 26.649856, -69.726156, -117.937292, , , 0.000000, , , 
28740, , 9.292867, 1.511453, 2.953239, -0.034671, -0.071520, 0.054261, 0.290081, -0.726272, -0.118870, -0.799805, 0.270264, -0.236572, 0.092830, 0.015016, 0.029891, 0.999992, 0.001450, -0.003631, -0.000594, 27.471512, -70.063155, -118.648072, , , 0.000000, , , 
28741, , 9.334681, 1.419659, 2.864169, -0.147730, -0.088278, 0.052658, 0.271090, -0.752982, -0.122767, -0.797607, 0.268066, -0.225586, 0.093247, 0.014100, 0.029012, 0.999992, 0.001355, -0.003765, -0.000614, 28.360780, -70.412861, -119.428493, , , 0.000000, , , 
28742, , 9.143386, 1.437100, 2.923262, -0.115752, 0.100213, -0.107624, 0.272795, -0.773570, -0.131728, -0.804443, 0.263428, -0.218994, 0.091329, 0.014271, 0.029606, 0.999991, 0.001364, -0.003868, -0.000659, 29.300955, -70.760497, -120.255057, , , 0.000000, , , 
28743, , 9.015317, 1.671867, 2.936806, 0.120439, 0.219199, -0.188094, 0.248214, -0.795766, -0.136397, -0.806641, 0.261230, -0.214355, 0.090047, 0.016620, 0.029747, 0.999991, 0.001241, -0.003979, -0.000682, 30.294055, -71.118730, -121.155832, , , 0.000000, , , 
28744, , 8.967170, 1.652796, 2.997369, 0.092083, 0.371422, -0.222114, 0.211364, -0.813458, -0.144726, -0.804443, 0.263428, -0.208008, 0.089561, 0.016431, 0.030356, 0.999991, 0.001057, -0.004067, -0.000724, 31.344423, -71.474959, -122.124521, , , 0.000000, , , 
28745, , 8.958290, 1.582997, 2.975215, 0.009294, 0.436242, -0.251423, 0.180497, -0.839482, -0.152397, -0.804443, 0.265625, -0.199219, 0.089469, 0.015735, 0.030142, 0.999990, 0.000902, -0.004197, -0.000762, 32.436903, -71.838630, -123.167048, , , 0.000000, , , 
28746, , 9.137149, 1.571367, 2.803860, -0.045939, 0.307413, -0.131722, 0.145297, -0.860988, -0.167014, -0.808838, 0.259033, -0.194824, 0.091263, 0.015617, 0.028443, 0.999990, 0.000726, -0.004305, -0.000835, 33.576901, -72.201265, -124.282616, , , 0.000000, , , 
28747, , 9.232730, 1.457499, 2.634297, -0.189278, 0.209010, -0.105630, 0.111576, -0.889364, -0.185907, -0.813477, 0.258789, -0.188232, 0.092222, 0.014474, 0.026761, 0.999990, 0.000558, -0.004447, -0.000930, 34.819366, -72.564293, -125.519678, , , 0.000000, , , 
28748, , 9.305148, 1.403215, 2.395173, -0.270443, 0.048762, -0.106223, 0.124876, -0.903212, -0.192776, -0.811279, 0.256836, -0.183838, 0.092955, 0.013927, 0.024380, 0.999989, 0.000624, -0.004516, -0.000964, 36.141271, -72.920653, -126.825894, , , 0.000000, , , 
28749, , 9.345779, 1.613561, 2.216695, -0.087214, -0.051709, -0.073595, 0.158883, -0.910498, -0.192077, -0.815918, 0.256592, -0.175049, 0.093371, 0.016028, 0.022605, 0.999989, 0.000794, -0.004552, -0.000960, 37.550980, -73.273566, -128.204640, , , 0.000000, , , 
28750, , 9.500375, 1.655713, 2.143661, -0.091363, -0.069351, 0.065567, 0.158165, -0.913194, -0.198145, -0.815918, 0.256592, -0.166260, 0.094921, 0.016446, 0.021883, 0.999989, 0.000791, -0.004566, -0.000991, 39.011465, -73.612035, -129.635838, , , 0.000000, , , 
28751, , 9.476034, 1.558809, 2.161596, -0.202880, 0.047379, 0.028729, 0.166648, -0.902346, -0.214393, -0.820312, 0.254395, -0.161865, 0.094678, 0.015468, 0.022056, 0.999989, 0.000833, -0.004512, -0.001072, 40.567629, -73.932124, -131.157662, , , 0.000000, , , 
28752, , 9.408569, 1.601598, 1.859755, -0.165864, -0.146307, -0.091814, 0.183030, -0.893071, -0.210323, -0.827148, 0.250000, -0.153076, 0.094018, 0.015900, 0.019032, 0.999989, 0.000915, -0.004465, -0.001052, 42.146282, -74.237937, -132.692897, , , 0.000000, , , 
28753, , 9.454254, 1.975343, 1.544478, 0.174909, -0.386598, -0.040811, 0.198962, -0.875613, -0.207349, -0.827148, 0.247803, -0.148438, 0.094494, 0.019640, 0.015878, 0.999989, 0.000995, -0.004378, -0.001037, 43.794298, -74.525485, -134.286278, , , 0.000000, , , 
28754, , 9.555533, 1.904031, 1.458123, 0.065987, -0.402511, 0.030719, 0.164578, -0.858089, -0.205359, -0.829346, 0.245361, -0.135498, 0.095511, 0.018930, 0.015007, 0.999990, 0.000823, -0.004290, -0.001027, 45.444103, -74.792088, -135.887314, , , 0.000000, , , 
28755, , 9.568105, 2.096504, 1.350026, 0.233262, -0.431484, 0.062804, 0.145477, -0.828022, -0.201673, -0.829346, 0.240967, -0.135254, 0.095645, 0.020859, 0.013911, 0.999991, 0.000727, -0.004140, -0.001008, 47.095784, -75.037963, -137.512163, , , 0.000000, , , 
28756, , 9.627798, 2.106052, 1.274430, 0.212103, -0.435695, 0.112974, 0.062191, -0.800068, -0.200409, -0.829346, 0.240967, -0.124268, 0.096247, 0.020960, 0.013136, 0.999991, 0.000311, -0.004000, -0.001002, 48.708852, -75.259984, -139.134081, , , 0.000000, , , 
28757, , 9.557693, 1.910389, 1.168522, 0.015611, -0.446976, -0.006363, 0.039663, -0.770182, -0.200586, -0.827148, 0.249756, -0.122314, 0.095550, 0.019006, 0.012057, 0.999992, 0.000198, -0.003851, -0.001003, 50.302430, -75.460545, -140.758194, , , 0.000000, , , 
28758, , 9.661944, 1.759736, 1.258885, -0.169975, -0.296916, 0.082619, 0.008844, -0.760445, -0.192138, -0.831787, 0.245361, -0.111328, 0.096587, 0.017504, 0.012957, 0.999992, 0.000044, -0.003802, -0.000961, 51.862116, -75.653327, -142.366016, , , 0.000000, , , 
28759, , 9.573518, 1.713926, 1.235606, -0.214984, -0.232449, -0.013921, 0.059407, -0.731469, -0.190625, -0.838623, 0.236572, -0.111084, 0.095705, 0.017044, 0.012711, 0.999993, 0.000297, -0.003657, -0.000953, 53.468377, -75.822058, -143.988812, , , 0.000000, , , 
28760, , 9.550411, 1.977668, 1.356977, 0.030660, -0.044250, 0.034117, 0.096428, -0.717820, -0.181183, -0.831543, 0.232178, -0.100098, 0.095472, 0.019684, 0.013922, 0.999993, 0.000482, -0.003589, -0.000906, 55.076292, -75.981067, -145.580739, , , 0.000000, , , 
28761, , 9.623638, 2.125924, 1.342984, 0.144145, -0.001379, 0.132984, 0.059274, -0.696987, -0.184157, -0.833740, 0.229980, -0.104248, 0.096208, 0.021167, 0.013771, 0.999993, 0.000296, -0.003485, -0.000921, 56.680467, -76.119116, -147.199255, , , 0.000000, , , 
28762, , 9.681019, 2.323325, 1.123553, 0.309375, -0.164629, 0.200262, 0.004986, -0.663906, -0.180921, -0.836182, 0.236572, -0.093506, 0.096793, 0.023145, 0.011557, 0.999994, 0.000025, -0.003320, -0.000905, 58.205716, -76.232496, -148.769562, , , 0.000000, , , 
28763, , 9.842413, 2.056223, 0.676584, -0.000358, -0.558747, 0.249438, -0.055617, -0.636107, -0.180966, -0.835938, 0.227783, -0.084473, 0.098421, 0.020475, 0.007073, 0.999994, -0.000278, -0.003181, -0.000905, 59.673400, -76.333058, -150.313710, , , 0.000000, , , 
28764, , 10.006323, 1.898894, 0.334401, -0.204106, -0.854403, 0.339758, -0.033086, -0.591713, -0.172346, -0.840820, 0.231934, -0.082520, 0.100069, 0.018903, 0.003637, 0.999995, -0.000165, -0.002959, -0.000862, 61.058659, -76.416354, -151.757731, , , 0.000000, , , 
28765, , 10.096155, 1.694863, 0.297006, -0.438357, -0.839692, 0.385136, 0.012497, -0.545594, -0.153444, -0.840820, 0.231934, -0.075928, 0.100966, 0.016871, 0.003247, 0.999996, 0.000062, -0.002728, -0.000767, 62.382748, -76.488346, -153.112931, , , 0.000000, , , 
28766, , 9.885790, 1.730867, 0.370487, -0.372656, -0.693420, 0.199409, 0.085248, -0.483997, -0.136540, -0.835938, 0.229980, -0.075928, 0.098860, 0.017240, 0.003951, 0.999997, 0.000426, -0.002420, -0.000683, 63.592743, -76.548281, -154.298787, , , 0.000000, , , 
28767, , 9.629734, 1.741001, 0.265066, -0.322122, -0.725345, -0.055482, 0.158003, -0.439504, -0.127492, -0.840576, 0.225586, -0.077881, 0.096302, 0.017346, 0.002876, 0.999997, 0.000790, -0.002198, -0.000637, 64.767643, -76.593501, -155.414228, , , 0.000000, , , 
28768, , 9.640220, 1.886051, 0.455558, -0.193602, -0.497514, 0.006345, 0.216370, -0.398830, -0.107029, -0.842773, 0.225342, -0.073730, 0.096403, 0.018804, 0.004768, 0.999997, 0.001082, -0.001994, -0.000535, 65.833012, -76.633475, -156.385487, , , 0.000000, , , 
28769, , 9.773997, 2.145208, 0.497384, 0.020473, -0.431550, 0.196984, 0.236838, -0.364524, -0.101095, -0.842773, 0.225342, -0.067139, 0.097741, 0.021397, 0.005177, 0.999998, 0.001184, -0.001823, -0.000505, 66.874613, -76.665458, -157.317133, , , 0.000000, , , 
28770, , 9.849206, 2.331679, 0.863654, 0.175455, -0.038480, 0.343940, 0.192017, -0.338815, -0.095655, -0.845215, 0.225342, -0.067139, 0.098488, 0.023261, 0.008826, 0.999998, 0.000960, -0.001694, -0.000478, 67.801045, -76.689329, -158.150769, , , 0.000000, , , 
28771, , 9.903075, 2.391277, 0.758387, 0.212457, -0.113122, 0.400354, 0.141740, -0.301388, -0.088366, -0.844971, 0.218750, -0.066895, 0.099030, 0.023864, 0.007750, 0.999999, 0.000709, -0.001507, -0.000442, 68.641904, -76.707630, -158.931931, , , 0.000000, , , 
28772, , 9.556405, 2.450361, 0.499106, 0.336579, -0.313875, 0.054752, 0.094113, -0.276687, -0.081696, -0.847412, 0.225342, -0.062744, 0.095567, 0.024462, 0.005135, 0.999999, 0.000471, -0.001383, -0.000408, 69.364178, -76.717798, -159.610927, , , 0.000000, , , 
28773, , 9.684062, 2.364538, 0.637299, 0.216719, -0.156433, 0.172639, 0.057509, -0.281418, -0.077880, -0.845215, 0.225342, -0.058350, 0.096841, 0.023606, 0.006516, 0.999999, 0.000288, -0.001407, -0.000389, 70.105730, -76.733005, -160.339537, , , 0.000000, , , 
28774, , 9.673166, 2.229400, 1.038033, 0.079631, 0.270341, 0.164207, 0.029831, -0.227165, -0.055647, -0.842773, 0.223145, -0.058350, 0.096726, 0.022266, 0.010494, 0.999999, 0.000149, -0.001136, -0.000278, 70.657573, -76.750265, -160.877404, , , 0.000000, , , 
28775, , 9.353549, 2.131002, 0.772151, 0.048876, 0.052874, -0.188705, 0.046227, -0.223248, -0.052812, -0.842773, 0.223145, -0.053955, 0.093532, 0.021284, 0.007831, 0.999999, 0.000231, -0.001116, -0.000264, 71.241750, -76.764630, -161.450885, , , 0.000000, , , 
28776, , 9.374002, 2.176690, 0.868144, 0.084386, 0.168456, -0.152044, 0.013954, -0.246765, -0.055880, -0.847412, 0.216553, -0.053711, 0.093735, 0.021740, 0.008799, 0.999999, 0.000070, -0.001234, -0.000279, 71.835188, -76.782697, -162.050321, , , 0.000000, , , 
28777, , 9.392806, 1.971437, 0.837183, -0.124813, 0.163113, -0.180969, 0.004359, -0.266914, -0.055955, -0.845215, 0.227539, -0.051758, 0.093922, 0.019688, 0.008498, 0.999999, 0.000022, -0.001335, -0.000280, 72.501764, -76.800222, -162.733000, , , 0.000000, , , 
28778, , 9.483295, 1.911885, 0.873188, -0.207443, 0.218989, -0.103950, 0.023220, -0.284111, -0.060580, -0.842773, 0.225342, -0.047363, 0.094826, 0.019089, 0.008869, 0.999999, 0.000116, -0.001421, -0.000303, 73.194383, -76.817439, -163.422136, , , 0.000000, , , 
28779, , 9.684433, 1.976198, 0.895851, -0.194615, 0.256570, 0.106606, 0.038156, -0.298896, -0.067611, -0.840332, 0.218750, -0.053711, 0.096837, 0.019728, 0.009107, 0.999999, 0.000191, -0.001494, -0.000338, 73.966697, -76.829895, -164.193430, , , 0.000000, , , 
28780, , 9.703149, 2.249048, 0.560736, 0.063153, -0.053987, 0.163121, 0.020965, -0.296544, -0.068487, -0.840332, 0.218750, -0.044922, 0.097031, 0.022457, 0.005754, 0.999999, 0.000105, -0.001483, -0.000342, 74.678072, -76.842539, -164.917050, , , 0.000000, , , 
28781, , 9.649147, 1.990946, 0.243957, -0.182113, -0.334928, 0.035358, 0.001569, -0.300880, -0.061911, -0.844971, 0.218750, -0.038574, 0.096494, 0.019880, 0.002585, 0.999999, 0.000008, -0.001504, -0.000310, 75.432931, -76.853928, -165.691866, , , 0.000000, , , 
28782, , 9.588864, 1.905822, 0.226506, -0.256533, -0.319509, -0.042232, 0.066665, -0.292136, -0.048748, -0.849609, 0.218750, -0.034180, 0.095890, 0.019034, 0.002411, 0.999999, 0.000333, -0.001461, -0.000244, 76.175442, -76.871044, -166.417057, , , 0.000000, , , 
28783, , 9.506193, 2.055577, 0.289105, -0.096277, -0.225289, -0.085581, 0.143703, -0.264845, -0.032068, -0.847168, 0.214355, -0.033936, 0.095061, 0.020538, 0.003032, 0.999999, 0.000719, -0.001324, -0.000160, 76.911363, -76.889684, -167.088706, , , 0.000000, , , 
28784, , 9.499629, 2.380541, 0.368593, 0.218870, -0.120654, -0.015582, 0.161069, -0.245256, -0.025151, -0.847168, 0.214355, -0.036133, 0.094995, 0.023790, 0.003822, 0.999999, 0.000805, -0.001226, -0.000126, 77.607624, -76.907493, -167.696318, , , 0.000000, , , 
28785, , 9.610800, 2.394395, 0.287396, 0.205795, -0.181290, 0.092258, 0.115180, -0.225985, -0.017548, -0.849609, 0.218750, -0.031982, 0.096107, 0.023934, 0.002996, 0.999999, 0.000576, -0.001130, -0.000088, 78.229655, -76.925940, -168.267718, , , 0.000000, , , 
28786, , 9.618343, 2.296017, 0.333304, 0.106224, -0.112654, 0.080305, 0.090553, -0.205578, -0.017631, -0.849609, 0.220703, -0.034180, 0.096182, 0.022950, 0.003442, 0.999999, 0.000453, -0.001028, -0.000088, 78.770528, -76.940083, -168.760951, , , 0.000000, , , 
28787, , 9.963912, 2.275125, 0.723581, 0.005110, 0.283711, 0.429322, 0.076779, -0.193771, -0.022902, -0.849609, 0.218750, -0.031982, 0.099635, 0.022737, 0.007341, 0.999999, 0.000384, -0.000969, -0.000115, 79.297550, -76.949485, -169.257337, , , 0.000000, , , 
28788, , 10.254661, 2.448674, 0.568603, 0.109014, 0.132358, 0.744205, 0.010941, -0.133636, -0.024189, -0.844971, 0.214355, -0.031738, 0.102546, 0.024474, 0.005756, 1.000000, 0.000055, -0.000668, -0.000121, 79.608389, -76.954003, -169.557739, , , 0.000000, , , 
28789, , 9.807776, 2.424743, 0.076765, 0.184937, -0.328477, 0.283630, -0.062207, -0.119644, -0.031283, -0.842773, 0.220947, -0.029785, 0.098081, 0.024232, 0.000819, 1.000000, -0.000311, -0.000598, -0.000156, 79.879760, -76.949739, -169.873423, , , 0.000000, , , 
28790, , 9.652696, 2.101364, 0.111114, -0.098267, -0.277932, 0.062317, -0.133631, -0.124766, -0.032212, -0.847412, 0.218750, -0.027588, 0.096530, 0.020999, 0.001157, 1.000000, -0.000668, -0.000624, -0.000161, 80.089995, -76.947862, -170.170686, , , 0.000000, , , 
28791, , 9.426279, 1.845620, 0.019928, -0.299514, -0.349705, -0.218448, -0.108051, -0.114958, -0.025731, -0.847412, 0.218750, -0.029785, 0.094265, 0.018444, 0.000243, 1.000000, -0.000540, -0.000575, -0.000129, 80.320959, -76.945715, -170.471855, , , 0.000000, , , 
28792, , 9.510468, 1.851229, 0.144736, -0.314120, -0.220384, -0.130242, -0.046796, -0.103332, -0.019230, -0.847168, 0.214355, -0.022949, 0.095106, 0.018503, 0.001492, 1.000000, -0.000234, -0.000517, -0.000096, 80.522081, -76.949399, -170.699714, , , 0.000000, , , 
28793, , 9.558316, 2.069852, 0.127236, -0.113130, -0.232926, -0.035427, 0.030051, -0.070476, -0.015856, -0.852051, 0.218506, -0.020996, 0.095584, 0.020691, 0.001309, 1.000000, 0.000150, -0.000352, -0.000079, 80.719575, -76.948202, -170.885293, , , 0.000000, , , 
28794, , 9.492159, 2.318874, 0.169278, 0.143244, -0.183687, -0.042700, 0.032431, -0.053953, -0.015863, -0.844971, 0.220947, -0.031982, 0.094923, 0.023181, 0.001722, 1.000000, 0.000162, -0.000270, -0.000079, 80.872408, -76.946775, -171.008754, , , 0.000000, , , 
28795, , 9.545236, 2.366945, 0.182532, 0.177034, -0.167328, 0.020315, 0.002932, -0.046476, -0.012188, -0.842773, 0.218750, -0.023193, 0.095453, 0.023664, 0.001848, 1.000000, 0.000015, -0.000232, -0.000061, 80.994287, -76.945262, -171.132662, , , 0.000000, , , 
28796, , 9.517274, 2.234340, 0.307695, 0.054102, -0.038449, -0.032041, -0.039661, -0.030689, -0.014046, -0.847412, 0.216553, -0.025391, 0.095174, 0.022337, 0.003087, 1.000000, -0.000198, -0.000153, -0.000070, 81.012734, -76.947604, -171.176181, , , 0.000000, , , 
28797, , 9.794538, 2.032709, 0.340916, -0.205170, -0.012302, 0.194253, -0.025684, -0.006691, -0.008642, -0.847412, 0.220703, -0.023193, 0.097946, 0.020323, 0.003410, 1.000000, -0.000128, -0.000033, -0.000043, 81.019587, -76.944524, -171.198834, , , 0.000000, , , 
28798, , 9.723858, 2.243793, 0.207187, 0.016699, -0.146919, 0.167748, 0.002171, 0.026368, -0.010288, -0.844971, 0.218750, -0.023193, 0.097240, 0.022433, 0.002059, 1.000000, 0.000011, 0.000132, -0.000051, 80.937449, -76.941928, -171.104826, , , 0.000000, , , 
28799, , 9.828004, 2.252038, 0.277928, 0.000672, -0.083209, 0.273523, -0.031227, 0.036299, -0.008901, -0.844971, 0.218506, -0.014404, 0.098282, 0.022516, 0.002758, 1.000000, -0.000156, 0.000181, -0.000045, 80.836333, -76.934829, -171.019896, , , 0.000000, , , 
28800, , 9.520483, 2.274810, 0.049874, 0.092231, -0.305765, -0.029291, -0.068535, 0.061842, -0.008327, -0.854248, 0.220703, -0.027588, 0.095206, 0.022744, 0.000462, 1.000000, -0.000343, 0.000309, -0.000042, 80.657435, -76.932049, -170.864743, , , 0.000000, , , 
28801, , 9.473121, 2.041990, 0.137215, -0.124576, -0.221676, -0.124348, -0.077532, 0.047908, -0.004956, -0.847412, 0.218750, -0.025391, 0.094732, 0.020418, 0.001342, 1.000000, -0.000388, 0.000240, -0.000025, 80.500186, -76.926009, -170.749418, , , 0.000000, , , 
28802, , 9.513685, 2.056774, 0.247530, -0.118384, -0.121134, -0.077540, -0.046647, 0.075761, -0.003313, -0.847412, 0.218750, -0.023193, 0.095138, 0.020567, 0.002434, 1.000000, -0.000233, 0.000379, -0.000017, 80.262315, -76.922476, -170.516249, , , 0.000000, , , 
28803, , 9.491613, 2.197451, 0.221736, 0.023896, -0.155595, -0.068772, -0.028800, 0.084113, 0.002925, -0.842773, 0.216553, -0.025391, 0.094917, 0.021976, 0.002174, 1.000000, -0.000144, 0.000421, 0.000015, 80.041877, -76.917161, -170.307372, , , 0.000000, , , 
28804, , 9.528282, 2.214046, 0.242393, 0.033348, -0.145398, -0.028688, -0.027024, 0.084632, 0.006169, -0.844971, 0.216553, -0.025391, 0.095283, 0.022144, 0.002381, 1.000000, -0.000135, 0.000423, 0.000031, 79.807303, -76.917547, -170.076890, , , 0.000000, , , 
28805, , 9.465034, 2.203898, 0.358164, 0.038619, -0.035968, -0.088001, -0.033508, 0.088796, 0.010356, -0.847412, 0.220703, -0.020996, 0.094651, 0.022044, 0.003536, 1.000000, -0.000168, 0.000444, 0.000052, 79.569729, -76.915573, -169.853181, , , 0.000000, , , 
28806, , 9.474891, 2.204767, 0.334376, 0.039436, -0.069075, -0.079239, -0.033400, 0.090335, 0.011160, -0.849609, 0.220703, -0.029785, 0.094749, 0.022054, 0.003297, 1.000000, -0.000167, 0.000452, 0.000056, 79.328773, -76.918890, -169.611685, , , 0.000000, , , 
28807, , 9.448210, 2.211099, 0.462399, 0.053144, 0.050811, -0.098469, -0.026187, 0.089040, 0.016176, -0.847412, 0.220703, -0.027588, 0.094482, 0.022119, 0.004579, 1.000000, -0.000131, 0.000445, 0.000081, 79.092154, -76.919762, -169.384646, , , 0.000000, , , 
28808, , 9.488089, 2.240356, 0.503480, 0.075580, 0.080395, -0.051318, -0.054585, 0.082486, 0.013099, -0.847412, 0.218750, -0.031982, 0.094881, 0.022411, 0.004990, 1.000000, -0.000273, 0.000412, 0.000065, 78.835992, -76.924913, -169.137490, , , 0.000000, , , 
28809, , 9.532286, 2.171569, 0.521945, 0.000500, 0.088578, -0.022653, -0.049604, 0.085854, 0.016089, -0.847168, 0.212158, -0.029541, 0.095323, 0.021725, 0.005173, 1.000000, -0.000248, 0.000429, 0.000080, 78.593509, -76.925669, -168.918200, , , 0.000000, , , 
28810, , 9.492173, 2.139323, 0.499504, -0.020516, 0.057626, -0.069802, -0.055879, 0.094619, 0.008756, -0.844971, 0.216553, -0.031738, 0.094923, 0.021399, 0.004944, 1.000000, -0.000279, 0.000473, 0.000044, 78.305019, -76.919682, -168.654634, , , 0.000000, , , 
28811, , 9.371105, 2.157482, 0.454887, 0.025336, 0.009119, -0.185718, -0.046533, 0.077196, 0.011324, -0.847412, 0.220947, -0.029785, 0.093712, 0.021581, 0.004508, 1.000000, -0.000233, 0.000386, 0.000057, 78.087596, -76.918328, -168.459254, , , 0.000000, , , 
28812, , 9.431686, 2.118614, 0.479618, -0.023947, 0.022558, -0.134145, -0.075378, 0.075842, 0.009415, -0.842773, 0.218750, -0.029785, 0.094318, 0.021192, 0.004752, 1.000000, -0.000377, 0.000379, 0.000047, 77.840385, -76.918857, -168.242348, , , 0.000000, , , 
28813, , 9.513162, 2.028051, 0.416709, -0.128925, -0.051048, -0.077819, -0.061702, 0.067135, 0.012433, -0.849609, 0.212158, -0.029541, 0.095132, 0.020288, 0.004129, 1.000000, -0.000309, 0.000336, 0.000062, 77.637928, -76.919006, -168.071247, , , 0.000000, , , 
28814, , 9.749451, 2.124444, 0.648500, -0.085220, 0.160142, 0.184947, -0.036542, 0.074021, 0.013665, -0.842773, 0.220947, -0.034180, 0.097495, 0.021252, 0.006445, 1.000000, -0.000183, 0.000370, 0.000068, 77.425774, -76.917952, -167.872083, , , 0.000000, , , 
28815, , 9.698918, 2.179609, 0.536022, -0.018905, 0.041525, 0.142459, -0.035845, 0.075163, 0.011904, -0.849609, 0.220703, -0.029785, 0.096990, 0.021803, 0.005320, 1.000000, -0.000179, 0.000376, 0.000060, 77.219103, -76.916510, -167.681445, , , 0.000000, , , 
28816, , 9.685454, 2.162302, 0.557252, -0.030227, 0.055100, 0.126636, -0.035482, 0.079823, 0.014349, -0.847412, 0.218750, -0.036377, 0.096855, 0.021631, 0.005530, 1.000000, -0.000177, 0.000399, 0.000072, 76.987564, -76.920611, -167.451357, , , 0.000000, , , 
28817, , 9.752703, 2.183964, 0.480231, -0.022222, -0.034540, 0.193004, -0.036144, 0.093303, 0.018436, -0.845215, 0.223145, -0.034180, 0.097527, 0.021849, 0.004753, 1.000000, -0.000181, 0.000467, 0.000092, 76.733466, -76.920122, -167.212196, , , 0.000000, , , 
28818, , 9.703647, 2.167947, 0.750600, -0.023555, 0.222831, 0.155959, -0.029146, 0.193253, 0.017538, -0.847412, 0.218750, -0.036377, 0.097042, 0.021689, 0.007409, 1.000000, -0.000146, 0.000966, 0.000088, 76.221501, -76.909228, -166.694006, , , 0.000000, , , 
28819, , 9.049866, 2.140776, 0.291593, 0.094432, -0.220655, -0.511591, -0.020959, 0.215545, 0.009499, -0.842773, 0.216553, -0.040527, 0.090501, 0.021412, 0.002816, 0.999999, -0.000105, 0.001078, 0.000047, 75.689924, -76.885935, -166.160981, , , 0.000000, , , 
28820, , 9.416026, 2.398872, 0.315546, 0.266694, -0.238990, -0.097368, -0.044106, 0.155033, 0.008262, -0.849854, 0.222900, -0.038574, 0.094162, 0.023993, 0.003077, 1.000000, -0.000221, 0.000775, 0.000041, 75.266210, -76.869051, -165.754430, , , 0.000000, , , 
28821, , 9.781401, 2.348854, 0.610108, 0.139245, 0.017395, 0.264288, -0.116603, 0.181137, 0.007149, -0.847412, 0.223145, -0.036377, 0.097819, 0.023496, 0.005999, 0.999999, -0.000583, 0.000906, 0.000036, 74.766116, -76.847574, -165.309919, , , 0.000000, , , 
28822, , 9.707516, 2.114557, 0.265007, -0.071362, -0.340102, 0.119918, -0.148428, 0.192858, 0.012188, -0.844971, 0.220947, -0.040771, 0.097076, 0.021153, 0.002541, 0.999999, -0.000742, 0.000964, 0.000061, 74.214699, -76.831930, -164.804744, , , 0.000000, , , 
28823, , 9.792560, 1.964075, 0.285007, -0.234397, -0.343631, 0.170298, -0.107718, 0.184902, 0.028042, -0.844971, 0.218750, -0.042725, 0.097925, 0.019656, 0.002749, 0.999999, -0.000539, 0.000925, 0.000140, 73.699577, -76.819520, -164.339498, , , 0.000000, , , 
28824, , 9.824272, 2.002072, 0.391196, -0.199608, -0.260883, 0.215757, -0.077390, 0.190008, 0.041421, -0.847412, 0.218750, -0.044922, 0.098242, 0.020043, 0.003811, 0.999999, -0.000387, 0.000950, 0.000207, 73.168501, -76.814400, -163.833201, , , 0.000000, , , 
28825, , 9.753174, 2.054098, 0.265146, -0.129190, -0.403671, 0.148957, -0.042351, 0.206746, 0.046825, -0.845215, 0.223145, -0.042969, 0.097530, 0.020564, 0.002546, 0.999999, -0.000212, 0.001034, 0.000234, 72.627836, -76.806644, -163.303214, , , 0.000000, , , 
28826, , 9.728333, 2.086487, 0.353695, -0.086175, -0.335787, 0.137125, -0.032432, 0.214889, 0.053731, -0.847412, 0.220947, -0.049561, 0.097281, 0.020892, 0.003429, 0.999999, -0.000162, 0.001074, 0.000269, 72.061301, -76.801993, -162.727894, , , 0.000000, , , 
28827, , 9.593170, 2.227546, 0.652554, 0.087376, -0.054392, 0.056763, -0.034183, 0.251379, 0.051624, -0.845215, 0.223145, -0.047363, 0.095934, 0.022301, 0.006401, 0.999999, -0.000171, 0.001257, 0.000258, 71.419555, -76.786399, -162.089233, , , 0.000000, , , 
28828, , 9.476768, 2.252450, 0.733411, 0.142690, 0.007491, -0.045392, -0.062985, 0.273959, 0.048952, -0.843018, 0.227539, -0.051758, 0.094772, 0.022550, 0.007197, 0.999999, -0.000315, 0.001370, 0.000245, 70.700986, -76.764948, -161.375937, , , 0.000000, , , 
28829, , 9.522230, 2.322012, 0.764459, 0.205799, 0.005511, 0.016176, -0.109676, 0.278549, 0.046076, -0.842773, 0.223145, -0.053955, 0.095227, 0.023246, 0.007499, 0.999999, -0.000548, 0.001393, 0.000230, 69.962128, -76.737545, -160.681824, , , 0.000000, , , 
28830, , 9.588230, 2.197974, 0.715948, 0.076811, -0.074291, 0.049683, -0.147296, 0.264430, 0.055148, -0.838135, 0.225342, -0.053955, 0.095886, 0.022011, 0.007017, 0.999999, -0.000736, 0.001322, 0.000276, 69.215919, -76.720834, -159.988723, , , 0.000000, , , 
28831, , 9.696111, 2.116709, 0.721716, -0.019294, -0.104233, 0.137418, -0.161111, 0.267718, 0.060707, -0.840576, 0.229736, -0.060547, 0.096964, 0.021202, 0.007070, 0.999999, -0.000806, 0.001339, 0.000304, 68.464652, -76.699376, -159.312006, , , 0.000000, , , 
