PacketCounter, SampleTimeFine, Acc_X, Acc_Y, Acc_Z, FreeAcc_X, FreeAcc_Y, FreeAcc_Z, Gyr_X, Gyr_Y, Gyr_Z, Mag_X, Mag_Y, Mag_Z, VelInc_X, VelInc_Y, VelInc_Z, OriInc_q0, OriInc_q1, OriInc_q2, OriInc_q3, Roll, Pitch, Yaw, Latitude, Longitude, Altitude, Vel_X, Vel_Y, Vel_Z
06318, , 9.547428, -1.706421, -1.366688, 0.000000, -0.000000, -0.018144, -0.031698, -0.027652, -0.036571, -0.849854, 0.610840, 0.105957, 0.095473, -0.017084, -0.013651, 1.000000, -0.000158, -0.000138, -0.000183, -128.626867, -77.099039, 40.164812, , , 0.000000, , , 
06319, , 9.734500, -1.865167, -1.102898, -0.232683, 0.312956, 0.152433, -0.021446, -0.020711, -0.032291, -0.841064, 0.613037, 0.099609, 0.097343, -0.018669, -0.011017, 1.000000, -0.000107, -0.000104, -0.000161, -130.944875, -77.385480, 43.447760, , , 0.000000, , , 
06320, , 9.633371, -1.850468, -1.323877, -0.224896, 0.081637, 0.082840, 0.009646, -0.016777, -0.023202, -0.845459, 0.610840, 0.097412, 0.096333, -0.018515, -0.013232, 1.000000, 0.000048, -0.000084, -0.000116, -131.010741, -77.389212, 43.520918, , , 0.000000, , , 
06321, , 9.638700, -1.446980, -1.445246, 0.178158, -0.023356, 0.038949, -0.002890, -0.025759, -0.025302, -0.847656, 0.610840, 0.101807, 0.096387, -0.014482, -0.014440, 1.000000, -0.000014, -0.000129, -0.000127, -131.095853, -77.391380, 43.607820, , , 0.000000, , , 
06322, , 9.598440, -1.516446, -1.350369, 0.095646, 0.063637, -0.002491, -0.007667, -0.005623, -0.021877, -0.843262, 0.610840, 0.103760, 0.095983, -0.015175, -0.013500, 1.000000, -0.000038, -0.000028, -0.000109, -131.147963, -77.398703, 43.656716, , , 0.000000, , , 
06323, , 9.680308, -1.540472, -1.403993, 0.086123, 0.023519, 0.089063, -0.013089, -0.006393, -0.009188, -0.840820, 0.608643, 0.099609, 0.096803, -0.015410, -0.014036, 1.000000, -0.000065, -0.000032, -0.000046, -131.196226, -77.397880, 43.695984, , , 0.000000, , , 
06324, , 9.625989, -1.540347, -1.409304, 0.077073, 0.010592, 0.036801, -0.016420, -0.000210, -0.004514, -0.845459, 0.610840, 0.101807, 0.096260, -0.015407, -0.014092, 1.000000, -0.000082, -0.000001, -0.000023, -131.213661, -77.399747, 43.704209, , , 0.000000, , , 
06325, , 9.615990, -1.593471, -1.409833, 0.022536, 0.006558, 0.035840, -0.009469, 0.012997, -0.002256, -0.838623, 0.610840, 0.095459, 0.096159, -0.015936, -0.014104, 1.000000, -0.000047, 0.000065, -0.000011, -131.201478, -77.405746, 43.685647, , , 0.000000, , , 
06326, , 9.567906, -1.562767, -1.362795, 0.042530, 0.045507, -0.022877, -0.014880, 0.016333, 0.002491, -0.843262, 0.610840, 0.099609, 0.095678, -0.015627, -0.013635, 1.000000, -0.000074, 0.000082, 0.000012, -131.174269, -77.410835, 43.649032, , , 0.000000, , , 
06327, , 9.559527, -1.696365, -1.242063, -0.097478, 0.157215, -0.026436, -0.023899, 0.023645, -0.002680, -0.841064, 0.610840, 0.099609, 0.095594, -0.016966, -0.012430, 1.000000, -0.000119, 0.000118, -0.000013, -131.137792, -77.424015, 43.599658, , , 0.000000, , , 
06328, , 9.502508, -1.741287, -1.205886, -0.153144, 0.181729, -0.079886, -0.024765, 0.011705, -0.000535, -0.845459, 0.615234, 0.097412, 0.095024, -0.017415, -0.012062, 1.000000, -0.000124, 0.000059, -0.000003, -131.130240, -77.428657, 43.577382, , , 0.000000, , , 
06329, , 9.813138, -1.535947, -1.026360, 0.088095, 0.409600, 0.164020, -0.044828, 0.034650, -0.003315, -0.843262, 0.610840, 0.097412, 0.098129, -0.015363, -0.010277, 1.000000, -0.000224, 0.000173, -0.000017, -131.081977, -77.445494, 43.503101, , , 0.000000, , , 
06330, , 10.328112, -1.005314, -0.234185, 0.651969, 1.280544, 0.466930, -0.443199, 0.112556, 0.051080, -0.845459, 0.610840, 0.108154, 0.103282, -0.010032, -0.002378, 0.999997, -0.002216, 0.000563, 0.000255, -131.030969, -77.465782, 43.190701, , , 0.000000, , , 
06331, , 9.128086, -1.625545, -1.555190, -0.084435, -0.222038, -0.414468, -0.788057, 0.097361, 0.103094, -0.843262, 0.613037, 0.108154, 0.091282, -0.016270, -0.015532, 0.999992, -0.003940, 0.000487, 0.000515, -131.105619, -77.464895, 42.803387, , , 0.000000, , , 
06332, , 9.266472, -1.631706, -1.757368, -0.063155, -0.397287, -0.249400, -0.527303, 0.039266, 0.068200, -0.849854, 0.610840, 0.105957, 0.092667, -0.016332, -0.017549, 0.999996, -0.002637, 0.000196, 0.000341, -131.216002, -77.450284, 42.606961, , , 0.000000, , , 
06333, , 9.412784, -1.770924, -1.671856, -0.184072, -0.288873, -0.095978, -0.444244, 0.027032, 0.037248, -0.845459, 0.608643, 0.110352, 0.094129, -0.017729, -0.016692, 0.999998, -0.002221, 0.000135, 0.000186, -131.340395, -77.450514, 42.474236, , , 0.000000, , , 
06334, , 10.042522, -2.581500, -0.579511, -0.918564, 0.884820, 0.493891, -0.417811, 0.020240, 0.037746, -0.845215, 0.602051, 0.114502, 0.100430, -0.025808, -0.005751, 0.999998, -0.002089, 0.000101, 0.000189, -131.476485, -77.441964, 42.368409, , , 0.000000, , , 
06335, , 9.816673, -2.509643, -1.726697, -0.850762, -0.277139, 0.426758, -0.207114, -0.004805, 0.047703, -0.840820, 0.606445, 0.116699, 0.098173, -0.025091, -0.017239, 0.999999, -0.001036, -0.000024, 0.000239, -131.480038, -77.422847, 42.251885, , , 0.000000, , , 
06336, , 9.785041, -1.095539, -1.629453, 0.537652, -0.180889, 0.151275, -0.035726, 0.007497, 0.010703, -0.840820, 0.608643, 0.112305, 0.097850, -0.010953, -0.016296, 1.000000, -0.000179, 0.000037, 0.000054, -131.467880, -77.421098, 42.218455, , , 0.000000, , , 
06337, , 9.511827, -1.311444, -1.378669, 0.275948, 0.023994, -0.116361, -0.013459, 0.041465, 0.009876, -0.845215, 0.606445, 0.116699, 0.095116, -0.013111, -0.013806, 1.000000, -0.000067, 0.000207, 0.000049, -131.342090, -77.431909, 42.082850, , , 0.000000, , , 
06338, , 9.650109, -1.442177, -1.317319, 0.168866, 0.102209, 0.031135, -0.046153, 0.020282, 0.020490, -0.843262, 0.613037, 0.110107, 0.096501, -0.014415, -0.013180, 1.000000, -0.000231, 0.000101, 0.000102, -131.294619, -77.430764, 42.007121, , , 0.000000, , , 
06339, , 9.540105, -1.674030, -1.413043, -0.073034, -0.011580, -0.024572, 0.011523, 0.019927, 0.021566, -0.840820, 0.608643, 0.110352, 0.095401, -0.016729, -0.014141, 1.000000, 0.000058, 0.000100, 0.000108, -131.178062, -77.432005, 41.896239, , , 0.000000, , , 
06340, , 9.468158, -1.626534, -1.465116, -0.034018, -0.076617, -0.095117, 0.097781, 0.026894, 0.014541, -0.849854, 0.610840, 0.112305, 0.094681, -0.016251, -0.014672, 1.000000, 0.000489, 0.000134, 0.000073, -131.045374, -77.435861, 41.817694, , , 0.000000, , , 
06341, , 9.455598, -1.527312, -1.448707, 0.064834, -0.067988, -0.126050, 0.140287, 0.029262, 0.009642, -0.845459, 0.613037, 0.112305, 0.094555, -0.015258, -0.014512, 1.000000, 0.000701, 0.000146, 0.000048, -130.853802, -77.446063, 41.706647, , , 0.000000, , , 
06342, , 9.478125, -1.668196, -1.435091, -0.068160, -0.057138, -0.082872, 0.185746, 0.031280, -0.003660, -0.843262, 0.615234, 0.110107, 0.094779, -0.016670, -0.014381, 1.000000, 0.000929, 0.000156, -0.000018, -130.692542, -77.459357, 41.650471, , , 0.000000, , , 
06343, , 9.500745, -1.697093, -1.426888, -0.089941, -0.053508, -0.057211, 0.199078, 0.044966, -0.005512, -0.840820, 0.608643, 0.110352, 0.095004, -0.016959, -0.014307, 0.999999, 0.000995, 0.000225, -0.000028, -130.468206, -77.477472, 41.538877, , , 0.000000, , , 
06344, , 9.411746, -1.743301, -1.279130, -0.152481, 0.072530, -0.157237, 0.184176, 0.034706, -0.009961, -0.841064, 0.610840, 0.105957, 0.094114, -0.017426, -0.012824, 1.000000, 0.000921, 0.000174, -0.000050, -130.311092, -77.494702, 41.486033, , , 0.000000, , , 
06345, , 9.433195, -1.748879, -1.261339, -0.153481, 0.086646, -0.137789, 0.174803, 0.024336, -0.015886, -0.843018, 0.608643, 0.104004, 0.094329, -0.017485, -0.012640, 1.000000, 0.000874, 0.000122, -0.000079, -130.169177, -77.510965, 41.443518, , , 0.000000, , , 
06346, , 9.636431, -1.543225, -0.982912, 0.073348, 0.388796, -0.012080, 0.108458, 0.022148, -0.010607, -0.843262, 0.615234, 0.105957, 0.096362, -0.015432, -0.009848, 1.000000, 0.000542, 0.000111, -0.000053, -130.080893, -77.523786, 41.416741, , , 0.000000, , , 
06347, , 9.703811, -1.364274, -0.780662, 0.255342, 0.597249, -0.003879, -0.176940, 0.027246, 0.028074, -0.845459, 0.615234, 0.103760, 0.097039, -0.013636, -0.007808, 1.000000, -0.000885, 0.000136, 0.000140, -130.038132, -77.522923, 41.270552, , , 0.000000, , , 
06348, , 9.447396, -1.370129, -1.086991, 0.218810, 0.258993, -0.210753, -0.371173, 0.019707, 0.045485, -0.838867, 0.610840, 0.112305, 0.094476, -0.013700, -0.010854, 0.999998, -0.001856, 0.000099, 0.000227, -130.135965, -77.510251, 41.152937, , , 0.000000, , , 
06349, , 9.411786, -1.661180, -1.393066, -0.065357, -0.047812, -0.154773, -0.336626, -0.009715, 0.033910, -0.845459, 0.613037, 0.114502, 0.094121, -0.016619, -0.013898, 0.999999, -0.001683, -0.000049, 0.000170, -130.243651, -77.497797, 41.065280, , , 0.000000, , , 
06350, , 9.409015, -1.727567, -1.370434, -0.133200, -0.020691, -0.149667, -0.192409, -0.007220, 0.016325, -0.847656, 0.614990, 0.116455, 0.094092, -0.017281, -0.013684, 1.000000, -0.000962, -0.000036, 0.000082, -130.340837, -77.487975, 41.051904, , , 0.000000, , , 
06351, , 9.380733, -1.729421, -1.427693, -0.138970, -0.078292, -0.168938, -0.104924, -0.032468, 0.000590, -0.843262, 0.615234, 0.116455, 0.093810, -0.017301, -0.014253, 1.000000, -0.000525, -0.000162, 0.000003, -130.424997, -77.478260, 41.074339, , , 0.000000, , , 
06352, , 9.603782, -2.010435, -0.880002, -0.394016, 0.501120, 0.018005, -0.086659, -0.043317, -0.012785, -0.849854, 0.608643, 0.114502, 0.096038, -0.020114, -0.008771, 1.000000, -0.000433, -0.000217, -0.000064, -130.581054, -77.467692, 41.183325, , , 0.000000, , , 
06353, , 10.182871, -2.827671, -0.818875, -1.106271, 0.650201, 0.709220, -0.082665, -0.054593, 0.018699, -0.840820, 0.606445, 0.120850, 0.101834, -0.028271, -0.008149, 1.000000, -0.000413, -0.000273, 0.000093, -130.644358, -77.443362, 41.198665, , , 0.000000, , , 
06354, , 9.901832, -1.058436, -2.154273, 0.623513, -0.709399, 0.332037, 0.129872, -0.059533, 0.003140, -0.843262, 0.610840, 0.116455, 0.099025, -0.010569, -0.021520, 1.000000, 0.000649, -0.000298, 0.000016, -130.680860, -77.419756, 41.312281, , , 0.000000, , , 
06355, , 9.929488, -1.209822, -1.505548, 0.466897, -0.064543, 0.291912, 0.033656, 0.039914, 0.003042, -0.845459, 0.610840, 0.120850, 0.099292, -0.012094, -0.015077, 1.000000, 0.000168, 0.000200, 0.000015, -130.536240, -77.434236, 41.180208, , , 0.000000, , , 
06356, , 9.664427, -1.155959, -1.364360, 0.475412, 0.033190, 0.004224, 0.038634, 0.032694, 0.028260, -0.845459, 0.606445, 0.123047, 0.096644, -0.011543, -0.013662, 1.000000, 0.000193, 0.000163, 0.000141, -130.403251, -77.434058, 41.066599, , , 0.000000, , , 
06357, , 9.881752, -1.388310, -0.976711, 0.276397, 0.443523, 0.200168, -0.072044, 0.051170, 0.052937, -0.840820, 0.608643, 0.116699, 0.098819, -0.013860, -0.009787, 1.000000, -0.000360, 0.000256, 0.000265, -130.251626, -77.434543, 40.861792, , , 0.000000, , , 
06358, , 9.506206, -1.287865, -0.727966, 0.312914, 0.635937, -0.218202, -0.643869, 0.051025, 0.102337, -0.838867, 0.615234, 0.114258, 0.095067, -0.012853, -0.007263, 0.999995, -0.003219, 0.000255, 0.000512, -130.351123, -77.408712, 40.585684, , , 0.000000, , , 
06359, , 9.090686, -2.025143, -1.666157, -0.465840, -0.339523, -0.368877, -0.645547, -0.016252, 0.113639, -0.843018, 0.606445, 0.123047, 0.090920, -0.020253, -0.016589, 0.999995, -0.003228, -0.000081, 0.000568, -130.509892, -77.365523, 40.366787, , , 0.000000, , , 
06360, , 9.127728, -1.832298, -1.513926, -0.269789, -0.175708, -0.386074, -0.358685, 0.001673, 0.085440, -0.841064, 0.610840, 0.125000, 0.091285, -0.018311, -0.015107, 0.999998, -0.001793, 0.000008, 0.000427, -130.570827, -77.328917, 40.218548, , , 0.000000, , , 
06361, , 9.403059, -1.783708, -1.431125, -0.174253, -0.051468, -0.137243, -0.236352, -0.015832, 0.054339, -0.838623, 0.608643, 0.125000, 0.094037, -0.017828, -0.014283, 0.999999, -0.001182, -0.000079, 0.000272, -130.609047, -77.307939, 40.115351, , , 0.000000, , , 
06362, , 9.545067, -1.888774, -1.327916, -0.252151, 0.078432, 0.004104, -0.147562, -0.024231, 0.045180, -0.838867, 0.613037, 0.125000, 0.095457, -0.018876, -0.013254, 1.000000, -0.000738, -0.000121, 0.000226, -130.666046, -77.279249, 40.087044, , , 0.000000, , , 
06363, , 9.628951, -1.734617, -1.416036, -0.082650, 0.001753, 0.072854, -0.070227, -0.018394, 0.032984, -0.838867, 0.610840, 0.129150, 0.096294, -0.017335, -0.014145, 1.000000, -0.000351, -0.000092, 0.000165, -130.631538, -77.262042, 40.009143, , , 0.000000, , , 
06364, , 9.576385, -1.754423, -1.334289, -0.109272, 0.078330, 0.013167, -0.030844, -0.018093, 0.019421, -0.847656, 0.610596, 0.133545, 0.095767, -0.017537, -0.013332, 1.000000, -0.000154, -0.000090, 0.000097, -130.652387, -77.246854, 40.012343, , , 0.000000, , , 
06365, , 9.642456, -1.612535, -1.342554, 0.043849, 0.076780, 0.055031, 0.014935, -0.022409, 0.013799, -0.841064, 0.610840, 0.127197, 0.096427, -0.016118, -0.013416, 1.000000, 0.000075, -0.000112, 0.000069, -130.623801, -77.236022, 39.987209, , , 0.000000, , , 
06366, , 9.698763, -1.338779, -1.123421, 0.323445, 0.296494, 0.032508, -0.033763, 0.000149, -0.001333, -0.838867, 0.613037, 0.126953, 0.096988, -0.013390, -0.011232, 1.000000, -0.000169, 0.000001, -0.000007, -130.645705, -77.236677, 39.989752, , , 0.000000, , , 
06367, , 9.379447, -1.353990, -1.226146, 0.252296, 0.149125, -0.261517, -0.225954, 0.004621, -0.023865, -0.841064, 0.610840, 0.127197, 0.093793, -0.013565, -0.012248, 0.999999, -0.001130, 0.000023, -0.000119, -130.748901, -77.255045, 39.961100, , , 0.000000, , , 
06368, , 9.251015, -1.769545, -1.385812, -0.184054, -0.012400, -0.294336, -0.211271, -0.015906, -0.019082, -0.841064, 0.610840, 0.133545, 0.092510, -0.017719, -0.013832, 0.999999, -0.001056, -0.000080, -0.000095, -130.932650, -77.257392, 40.025314, , , 0.000000, , , 
06369, , 9.298238, -1.859103, -1.312057, -0.267833, 0.073223, -0.244099, -0.117492, -0.038905, -0.021289, -0.843262, 0.608643, 0.133545, 0.092983, -0.018609, -0.013092, 1.000000, -0.000587, -0.000195, -0.000106, -131.060554, -77.258914, 40.084473, , , 0.000000, , , 
06370, , 9.564953, -2.009436, -0.891941, -0.372081, 0.538153, -0.020157, -0.088407, -0.066408, -0.020121, -0.841064, 0.610840, 0.135498, 0.095650, -0.020108, -0.008879, 1.000000, -0.000442, -0.000332, -0.000101, -131.271962, -77.242599, 40.249224, , , 0.000000, , , 
06371, , 9.992018, -2.576403, -1.145149, -0.861109, 0.371334, 0.527053, -0.059890, -0.068812, -0.001472, -0.843262, 0.610840, 0.131348, 0.099924, -0.025768, -0.011409, 1.000000, -0.000299, -0.000344, -0.000007, -131.377360, -77.223133, 40.317623, , , 0.000000, , , 
06372, , 9.995369, -1.400675, -1.772451, 0.294888, -0.277825, 0.426781, 0.118527, -0.066937, -0.009207, -0.841064, 0.610596, 0.144043, 0.099959, -0.014001, -0.017699, 1.000000, 0.000593, -0.000335, -0.000046, -131.452301, -77.201783, 40.464028, , , 0.000000, , , 
06373, , 9.933983, -1.424413, -1.471477, 0.265312, 0.012605, 0.326724, 0.092591, -0.021882, -0.001957, -0.838623, 0.608643, 0.139893, 0.099341, -0.014238, -0.014710, 1.000000, 0.000463, -0.000109, -0.000010, -131.379353, -77.195736, 40.438578, , , 0.000000, , , 
06374, , 9.660320, -1.317801, -1.601405, 0.326207, -0.157225, 0.061103, 0.106324, -0.027630, 0.021117, -0.841064, 0.608643, 0.135498, 0.096607, -0.013159, -0.016008, 1.000000, 0.000532, -0.000138, 0.000106, -131.336450, -77.176247, 40.456948, , , 0.000000, , , 
06375, , 9.612438, -1.560856, -1.569706, 0.083411, -0.126956, 0.050180, 0.095392, -0.012838, 0.037618, -0.841064, 0.613037, 0.133301, 0.096128, -0.015583, -0.015698, 1.000000, 0.000477, -0.000064, 0.000188, -131.212067, -77.158984, 40.377461, , , 0.000000, , , 
06376, , 9.694316, -1.359948, -1.270058, 0.301769, 0.176016, 0.052414, 0.046523, -0.012088, 0.061913, -0.843262, 0.608643, 0.133545, 0.096948, -0.013567, -0.012698, 1.000000, 0.000233, -0.000060, 0.000310, -131.107131, -77.127761, 40.297024, , , 0.000000, , , 
06377, , 9.444775, -1.254183, -1.188762, 0.368994, 0.218059, -0.220701, -0.276645, -0.011070, 0.070704, -0.843262, 0.612793, 0.133301, 0.094453, -0.012525, -0.011865, 0.999999, -0.001383, -0.000055, 0.000354, -131.124420, -77.100503, 40.148382, , , 0.000000, , , 
06378, , 9.304696, -1.773816, -1.378792, -0.164408, 0.032214, -0.242066, -0.324837, -0.039848, 0.079035, -0.845459, 0.608398, 0.139893, 0.093057, -0.017724, -0.013741, 0.999999, -0.001624, -0.000199, 0.000395, -131.256682, -77.051463, 40.092982, , , 0.000000, , , 
06379, , 9.405986, -1.827695, -1.441313, -0.196942, -0.006986, -0.124984, -0.210459, -0.041694, 0.080843, -0.843262, 0.612793, 0.141846, 0.094070, -0.018254, -0.014374, 0.999999, -0.001052, -0.000208, 0.000404, -131.280399, -77.012223, 39.989534, , , 0.000000, , , 
06380, , 9.490066, -1.784555, -1.427794, -0.134850, 0.024393, -0.052267, -0.127749, -0.047948, 0.070077, -0.843262, 0.614990, 0.137695, 0.094910, -0.017821, -0.014244, 1.000000, -0.000639, -0.000240, 0.000350, -131.329628, -76.964063, 39.964787, , , 0.000000, , , 
06381, , 9.577849, -1.827881, -1.458808, -0.157270, 0.012199, 0.045282, -0.057199, -0.052737, 0.056090, -0.841064, 0.610840, 0.141846, 0.095787, -0.018256, -0.014558, 1.000000, -0.000286, -0.000264, 0.000280, -131.316315, -76.926867, 39.915405, , , 0.000000, , , 
06382, , 9.529112, -1.825973, -1.427833, -0.158572, 0.041095, -0.007075, 0.013671, -0.051433, 0.048917, -0.841064, 0.612793, 0.141846, 0.095299, -0.018235, -0.014255, 1.000000, 0.000068, -0.000257, 0.000245, -131.325538, -76.886532, 39.932770, , , 0.000000, , , 
06383, , 9.549450, -1.724151, -1.423547, -0.049602, 0.047184, -0.005217, 0.043821, -0.055418, 0.042542, -0.838867, 0.610840, 0.146240, 0.095502, -0.017218, -0.014213, 1.000000, 0.000219, -0.000277, 0.000213, -131.293769, -76.854224, 39.921271, , , 0.000000, , , 
06384, , 9.586447, -1.652531, -1.359718, 0.032486, 0.117707, 0.008959, 0.052768, -0.058094, 0.032755, -0.841064, 0.612793, 0.141846, 0.095871, -0.016506, -0.013574, 1.000000, 0.000264, -0.000290, 0.000164, -131.319120, -76.818377, 39.978200, , , 0.000000, , , 
06385, , 9.534287, -1.540536, -1.271420, 0.137336, 0.196555, -0.074367, -0.005143, -0.050811, 0.017698, -0.838867, 0.610840, 0.144043, 0.095347, -0.015397, -0.012690, 1.000000, -0.000026, -0.000254, 0.000088, -131.359091, -76.798178, 40.008954, , , 0.000000, , , 
06386, , 9.426901, -1.605486, -1.321148, 0.055260, 0.140361, -0.160396, -0.064401, -0.070436, 0.013290, -0.836670, 0.613037, 0.141846, 0.094275, -0.016053, -0.013173, 1.000000, -0.000322, -0.000352, 0.000066, -131.505309, -76.766020, 40.121060, , , 0.000000, , , 
06387, , 9.383872, -1.460431, -1.084286, 0.193138, 0.370432, -0.263287, -0.222130, -0.086046, 0.018438, -0.841064, 0.612793, 0.145996, 0.093845, -0.014608, -0.010786, 0.999999, -0.001111, -0.000430, 0.000092, -131.724812, -76.733342, 40.209669, , , 0.000000, , , 
06388, , 9.047711, -1.506350, -1.290729, 0.084025, 0.132764, -0.551401, -0.418644, -0.118073, 0.006939, -0.838867, 0.612793, 0.152344, 0.090485, -0.015087, -0.012822, 0.999998, -0.002093, -0.000590, 0.000035, -132.168525, -76.685458, 40.418934, , , 0.000000, , , 
06389, , 9.113069, -1.934649, -1.375688, -0.332382, 0.095229, -0.401852, -0.415882, -0.157605, 0.001217, -0.841064, 0.608398, 0.156738, 0.091142, -0.019374, -0.013645, 0.999998, -0.002079, -0.000788, 0.000006, -132.653201, -76.633879, 40.665075, , , 0.000000, , , 
06390, , 9.125861, -1.917989, -1.317317, -0.316667, 0.178344, -0.401885, -0.360554, -0.204652, 0.002820, -0.832275, 0.613037, 0.158691, 0.091272, -0.019202, -0.013045, 0.999998, -0.001803, -0.001023, 0.000014, -133.217682, -76.553140, 41.032780, , , 0.000000, , , 
06391, , 9.221380, -2.074729, -1.499873, -0.462899, 0.046912, -0.253847, -0.308503, -0.243825, -0.024367, -0.843262, 0.606201, 0.158936, 0.092229, -0.020782, -0.014854, 0.999998, -0.001543, -0.001219, -0.000122, -133.825394, -76.473046, 41.466271, , , 0.000000, , , 
06392, , 9.549934, -2.088728, -1.573958, -0.425459, 0.054213, 0.079600, -0.155833, -0.254933, -0.021864, -0.838867, 0.608398, 0.165283, 0.095517, -0.020910, -0.015602, 0.999999, -0.000779, -0.001275, -0.000109, -134.387844, -76.380684, 41.952771, , , 0.000000, , , 
06393, , 9.455178, -1.752537, -1.800064, -0.122183, -0.178482, -0.031830, -0.152443, -0.232276, -0.049995, -0.838867, 0.608398, 0.165283, 0.094568, -0.017563, -0.017877, 0.999999, -0.000762, -0.001161, -0.000250, -134.900171, -76.318641, 42.385377, , , 0.000000, , , 
06394, , 9.356011, -1.651232, -1.543971, -0.039826, 0.078483, -0.187848, -0.168246, -0.253424, -0.079120, -0.838623, 0.604248, 0.169434, 0.093573, -0.016562, -0.015307, 0.999999, -0.000841, -0.001267, -0.000396, -135.550370, -76.247904, 42.955171, , , 0.000000, , , 
06395, , 9.236871, -1.505774, -1.767665, 0.065887, -0.144776, -0.289746, -0.192034, -0.255518, -0.107748, -0.843262, 0.606201, 0.171631, 0.092383, -0.015124, -0.017544, 0.999999, -0.000960, -0.001278, -0.000539, -136.210555, -76.193988, 43.517364, , , 0.000000, , , 
06396, , 9.098380, -1.580779, -1.742673, -0.044154, -0.109383, -0.415758, -0.186036, -0.292548, -0.136714, -0.840820, 0.601807, 0.177979, 0.090998, -0.015886, -0.017279, 0.999998, -0.000930, -0.001463, -0.000684, -137.018765, -76.126464, 44.239703, , , 0.000000, , , 
06397, , 9.611721, -2.090307, -1.507350, -0.464478, 0.269863, 0.124012, -0.111500, -0.319221, -0.157492, -0.838623, 0.599854, 0.180176, 0.096125, -0.020987, -0.014908, 0.999998, -0.000557, -0.001596, -0.000787, -137.816184, -76.062126, 44.991707, , , 0.000000, , , 
06398, , 9.696164, -1.871078, -1.494964, -0.249691, 0.314936, 0.166783, 0.051824, -0.320281, -0.191222, -0.845459, 0.601807, 0.186523, 0.096967, -0.018800, -0.014799, 0.999998, 0.000259, -0.001601, -0.000956, -138.610009, -75.998882, 45.840059, , , 0.000000, , , 
06399, , 9.778203, -1.810385, -1.445802, -0.191190, 0.402413, 0.226362, 0.084646, -0.316027, -0.208676, -0.845215, 0.597412, 0.182373, 0.097786, -0.018200, -0.014311, 0.999998, 0.000423, -0.001580, -0.001043, -139.363920, -75.947450, 46.659872, , , 0.000000, , , 
06400, , 9.691190, -1.413772, -1.506295, 0.166279, 0.334208, 0.089201, 0.094409, -0.330327, -0.193382, -0.845215, 0.595215, 0.190918, 0.096923, -0.014224, -0.014910, 0.999998, 0.000472, -0.001652, -0.000967, -140.138072, -75.875205, 47.513502, , , 0.000000, , , 
06401, , 9.410471, -1.295620, -1.883999, 0.209395, -0.064039, -0.130901, 0.020596, -0.353033, -0.184411, -0.838623, 0.595459, 0.188721, 0.094126, -0.013041, -0.018675, 0.999998, 0.000103, -0.001765, -0.000922, -140.922675, -75.799019, 48.328311, , , 0.000000, , , 
06402, , 9.302263, -1.358958, -2.029462, 0.109847, -0.188452, -0.197601, -0.034916, -0.352723, -0.172859, -0.843018, 0.597412, 0.197021, 0.093046, -0.013674, -0.020128, 0.999998, -0.000175, -0.001764, -0.000864, -141.748999, -75.703808, 49.159897, , , 0.000000, , , 
06403, , 9.382908, -1.726896, -1.973323, -0.251112, -0.063439, -0.073696, 0.016298, -0.356748, -0.150411, -0.840576, 0.591064, 0.193115, 0.093851, -0.017338, -0.019567, 0.999998, 0.000081, -0.001784, -0.000752, -142.461261, -75.599360, 49.897234, , , 0.000000, , , 
06404, , 9.326553, -1.982611, -2.030261, -0.523551, -0.083047, -0.078407, 0.172304, -0.341353, -0.125046, -0.844971, 0.588867, 0.197266, 0.093288, -0.019867, -0.020161, 0.999998, 0.000862, -0.001707, -0.000625, -143.047665, -75.487718, 50.604417, , , 0.000000, , , 
06405, , 9.342371, -1.523711, -1.816276, -0.066483, 0.128870, -0.175293, 0.321770, -0.328547, -0.094216, -0.843018, 0.591064, 0.201416, 0.093446, -0.015252, -0.018034, 0.999997, 0.001609, -0.001643, -0.000471, -143.431378, -75.378866, 51.186446, , , 0.000000, , , 
06406, , 9.553909, -1.506569, -2.113249, -0.022281, -0.095245, 0.086965, 0.346621, -0.316144, -0.057305, -0.845215, 0.599609, 0.201172, 0.095568, -0.015057, -0.021008, 0.999997, 0.001733, -0.001581, -0.000287, -143.748919, -75.253365, 51.719675, , , 0.000000, , , 
06407, , 9.966224, -0.897337, -2.424185, 0.645837, -0.325352, 0.457877, 0.398282, -0.258968, -0.015427, -0.840820, 0.595459, 0.192871, 0.099693, -0.008933, -0.024131, 0.999997, 0.001991, -0.001295, -0.000077, -143.840977, -75.140439, 52.046138, , , 0.000000, , , 
06408, , 10.109115, -0.812038, -2.712744, 0.757958, -0.562411, 0.643017, 0.297690, -0.198734, 0.013382, -0.838623, 0.597656, 0.192871, 0.101119, -0.008073, -0.027039, 0.999998, 0.001488, -0.000994, 0.000067, -143.904457, -75.044730, 52.287968, , , 0.000000, , , 
06409, , 10.223742, -0.836363, -2.695823, 0.764171, -0.508378, 0.753743, 0.224816, -0.140074, 0.042200, -0.843018, 0.601807, 0.194824, 0.102258, -0.008312, -0.026896, 0.999999, 0.001124, -0.000700, 0.000211, -143.829664, -74.971584, 52.349899, , , 0.000000, , , 
06410, , 10.096388, -0.845299, -2.559085, 0.747022, -0.390069, 0.603179, 0.135346, -0.092286, 0.068347, -0.836426, 0.599854, 0.194824, 0.100979, -0.008401, -0.025550, 1.000000, 0.000677, -0.000461, 0.000342, -143.755381, -74.906659, 52.353015, , , 0.000000, , , 
06411, , 9.806139, -0.992869, -2.373169, 0.567926, -0.255757, 0.306113, 0.040108, -0.073761, 0.094204, -0.838623, 0.599609, 0.199219, 0.098075, -0.009878, -0.023698, 1.000000, 0.000201, -0.000369, 0.000471, -143.636402, -74.843328, 52.259087, , , 0.000000, , , 
06412, , 9.684202, -1.446437, -1.815176, 0.115138, 0.290473, 0.140863, 0.012189, -0.089555, 0.108360, -0.836426, 0.599609, 0.197021, 0.096858, -0.014411, -0.018109, 1.000000, 0.000061, -0.000448, 0.000542, -143.561644, -74.766089, 52.188671, , , 0.000000, , , 
06413, , 9.653877, -1.606874, -1.545027, -0.035396, 0.562900, 0.079145, 0.055360, -0.098399, 0.108702, -0.838623, 0.601807, 0.201172, 0.096555, -0.016012, -0.015407, 1.000000, 0.000277, -0.000492, 0.000544, -143.474068, -74.687615, 52.128367, , , 0.000000, , , 
06414, , 9.701882, -1.333279, -1.463534, 0.253876, 0.650961, 0.064451, 0.066317, -0.114611, 0.096815, -0.834229, 0.601807, 0.199219, 0.097034, -0.013281, -0.014584, 1.000000, 0.000332, -0.000573, 0.000484, -143.420160, -74.602747, 52.111700, , , 0.000000, , , 
06415, , 9.704054, -1.528251, -1.697053, 0.069762, 0.441083, 0.146468, 0.011159, -0.121419, 0.083402, -0.836426, 0.597656, 0.197021, 0.097057, -0.015241, -0.016912, 1.000000, 0.000056, -0.000607, 0.000417, -143.425312, -74.524960, 52.118965, , , 0.000000, , , 
06416, , 9.673030, -1.588065, -1.973871, 0.011025, 0.179515, 0.184975, -0.050507, -0.136458, 0.057143, -0.840820, 0.599609, 0.199219, 0.096748, -0.015858, -0.019669, 1.000000, -0.000253, -0.000682, 0.000286, -143.530932, -74.443561, 52.198386, , , 0.000000, , , 
06417, , 9.573204, -1.958040, -2.026353, -0.370970, 0.134921, 0.158793, -0.152893, -0.138984, 0.012126, -0.834229, 0.604004, 0.207520, 0.095747, -0.019590, -0.020182, 0.999999, -0.000764, -0.000695, 0.000061, -143.772248, -74.395393, 52.356961, , , 0.000000, , , 
06418, , 9.306002, -1.934658, -1.875915, -0.395558, 0.240673, -0.135435, -0.205564, -0.136948, -0.046100, -0.834229, 0.604004, 0.209717, 0.093068, -0.019387, -0.018676, 0.999999, -0.001028, -0.000685, -0.000230, -144.135404, -74.348574, 52.611648, , , 0.000000, , , 
06419, , 8.836746, -2.670666, -1.859286, -1.208456, 0.210352, -0.476050, -0.311098, -0.210381, -0.086492, -0.838623, 0.601807, 0.207520, 0.088375, -0.026774, -0.018458, 0.999998, -0.001555, -0.001052, -0.000432, -144.699081, -74.281767, 53.003797, , , 0.000000, , , 
06420, , 8.892840, -2.263922, -1.326398, -0.807245, 0.750769, -0.606609, -0.278696, -0.245238, -0.157614, -0.838623, 0.597412, 0.211914, 0.088927, -0.022728, -0.013123, 0.999998, -0.001393, -0.001226, -0.000788, -145.410646, -74.219307, 53.577068, , , 0.000000, , , 
06421, , 8.842170, -2.687137, -1.412846, -1.253302, 0.704469, -0.575067, -0.232532, -0.309537, -0.211830, -0.834229, 0.595215, 0.218262, 0.088415, -0.026981, -0.013960, 0.999998, -0.001163, -0.001548, -0.001059, -146.209964, -74.153513, 54.272137, , , 0.000000, , , 
06422, , 8.949283, -2.183917, -1.556617, -0.765032, 0.596211, -0.520684, -0.110621, -0.347281, -0.265573, -0.836182, 0.591064, 0.224609, 0.089491, -0.021967, -0.015399, 0.999997, -0.000553, -0.001736, -0.001328, -147.108223, -74.071978, 55.140087, , , 0.000000, , , 
06423, , 9.067757, -1.948404, -1.814851, -0.543925, 0.394219, -0.385985, -0.131389, -0.389891, -0.310089, -0.836182, 0.591064, 0.226807, 0.090682, -0.019636, -0.017959, 0.999997, -0.000657, -0.001949, -0.001550, -148.086812, -73.983503, 56.070176, , , 0.000000, , , 
06424, , 9.164998, -1.931112, -2.025332, -0.547287, 0.250869, -0.248920, -0.138803, -0.408441, -0.353888, -0.838379, 0.584473, 0.231201, 0.091657, -0.019487, -0.020053, 0.999996, -0.000694, -0.002042, -0.001769, -149.194841, -73.890196, 57.140352, , , 0.000000, , , 
06425, , 9.236184, -1.749269, -2.224922, -0.394639, 0.104883, -0.161248, -0.197130, -0.425856, -0.379793, -0.842773, 0.584473, 0.233398, 0.092375, -0.017690, -0.022035, 0.999995, -0.000986, -0.002129, -0.001899, -150.330516, -73.794020, 58.197041, , , 0.000000, , , 
06426, , 9.265237, -1.313810, -2.523786, -0.004708, -0.156894, -0.121699, -0.225507, -0.430358, -0.396104, -0.840332, 0.575684, 0.241943, 0.092680, -0.013350, -0.025023, 0.999995, -0.001128, -0.002152, -0.001981, -151.555040, -73.689656, 59.337855, , , 0.000000, , , 
06427, , 9.278900, -1.051797, -2.308529, 0.221282, 0.084968, -0.196189, -0.301667, -0.457574, -0.398004, -0.846924, 0.573486, 0.244141, 0.092820, -0.010737, -0.022857, 0.999994, -0.001508, -0.002288, -0.001990, -152.785719, -73.571844, 60.434337, , , 0.000000, , , 
06428, , 9.331708, -1.145158, -2.309572, 0.094719, 0.152108, -0.133131, -0.307637, -0.486120, -0.389379, -0.846924, 0.571289, 0.252686, 0.093350, -0.011669, -0.022851, 0.999994, -0.001538, -0.002431, -0.001947, -154.060685, -73.423485, 61.580104, , , 0.000000, , , 
06429, , 9.308543, -1.178418, -2.225830, 0.021285, 0.278774, -0.173526, -0.253224, -0.508924, -0.392539, -0.851318, 0.564697, 0.259033, 0.093118, -0.011995, -0.022006, 0.999994, -0.001266, -0.002545, -0.001963, -155.264788, -73.267788, 62.681696, , , 0.000000, , , 
06430, , 9.308132, -1.275541, -2.230774, -0.114440, 0.333495, -0.162817, -0.185162, -0.535135, -0.398399, -0.846924, 0.564697, 0.261230, 0.093115, -0.012961, -0.022047, 0.999994, -0.000926, -0.002676, -0.001992, -156.479103, -73.082202, 63.839346, , , 0.000000, , , 
06431, , 9.302741, -1.318953, -2.332578, -0.198795, 0.289757, -0.138098, -0.153751, -0.561051, -0.405554, -0.844482, 0.558105, 0.269775, 0.093065, -0.013396, -0.023054, 0.999994, -0.000769, -0.002805, -0.002028, -157.640334, -72.889148, 64.957268, , , 0.000000, , , 
06432, , 9.402207, -1.614511, -2.286648, -0.517986, 0.436889, -0.026100, -0.184500, -0.577373, -0.417425, -0.844482, 0.553711, 0.269775, 0.094054, -0.016362, -0.022580, 0.999993, -0.000922, -0.002887, -0.002087, -158.863330, -72.671422, 66.126846, , , 0.000000, , , 
06433, , 9.382468, -1.273189, -3.004031, -0.242531, -0.221791, 0.115428, -0.112698, -0.576043, -0.428810, -0.844482, 0.555908, 0.282471, 0.093883, -0.012950, -0.029763, 0.999993, -0.000563, -0.002880, -0.002144, -159.983151, -72.458516, 67.226006, , , 0.000000, , , 
06434, , 9.364821, -0.276663, -2.559916, 0.717027, 0.196882, -0.128875, -0.220382, -0.604647, -0.430488, -0.846436, 0.544922, 0.286865, 0.093719, -0.002996, -0.025313, 0.999993, -0.001102, -0.003023, -0.002152, -161.206433, -72.214584, 68.377170, , , 0.000000, , , 
06435, , 9.377482, -0.946517, -2.698033, 0.006946, 0.174563, -0.010577, -0.354752, -0.645035, -0.424657, -0.850830, 0.544922, 0.286865, 0.093841, -0.009712, -0.026661, 0.999991, -0.001774, -0.003225, -0.002123, -162.436517, -71.942285, 69.447073, , , 0.000000, , , 
06436, , 9.338414, -0.553315, -2.291927, 0.363562, 0.594489, -0.206497, -0.285240, -0.701167, -0.430406, -0.850830, 0.538330, 0.303955, 0.093451, -0.005767, -0.022584, 0.999991, -0.001426, -0.003506, -0.002152, -163.677496, -71.630586, 70.581305, , , 0.000000, , , 
06437, , 9.302823, -0.907875, -1.973317, -0.021995, 0.982452, -0.310352, -0.319697, -0.767743, -0.445215, -0.853027, 0.533936, 0.310303, 0.093082, -0.009317, -0.019361, 0.999989, -0.001598, -0.003839, -0.002226, -164.904927, -71.290978, 71.681468, , , 0.000000, , , 
06438, , 9.458280, -1.746812, -2.701546, -0.913708, 0.478051, 0.124344, -0.222972, -0.835961, -0.458991, -0.845947, 0.525391, 0.319092, 0.094654, -0.017715, -0.026600, 0.999988, -0.001115, -0.004180, -0.002295, -166.130390, -70.893713, 72.841672, , , 0.000000, , , 
06439, , 9.378599, -0.728632, -2.645226, 0.050494, 0.519974, -0.054997, -0.027376, -0.878257, -0.515574, -0.852783, 0.525391, 0.323242, 0.093882, -0.007532, -0.026039, 0.999987, -0.000137, -0.004391, -0.002578, -167.270920, -70.483995, 74.021773, , , 0.000000, , , 
06440, , 9.245293, -1.436156, -2.515741, -0.707423, 0.738902, -0.178396, -0.152066, -0.949821, -0.558283, -0.848145, 0.516602, 0.331787, 0.092530, -0.014639, -0.024707, 0.999985, -0.000760, -0.004749, -0.002791, -168.551408, -70.019478, 75.289556, , , 0.000000, , , 
06441, , 9.237684, -1.637345, -3.456540, -0.996317, -0.042844, 0.135572, -0.008716, -0.998180, -0.600297, -0.848145, 0.514404, 0.340332, 0.092498, -0.016652, -0.034103, 0.999983, -0.000044, -0.004991, -0.003001, -169.730037, -69.542776, 76.534832, , , 0.000000, , , 
06442, , 9.614668, -0.790083, -2.762256, -0.146700, 0.782881, 0.190336, -0.075966, -1.043054, -0.633495, -0.848145, 0.512207, 0.346680, 0.096263, -0.008216, -0.027118, 0.999981, -0.000380, -0.005215, -0.003167, -170.988581, -69.014995, 77.833759, , , 0.000000, , , 
06443, , 9.729905, -1.141464, -3.490074, -0.574311, 0.271520, 0.567566, -0.116901, -1.063455, -0.662492, -0.841064, 0.501465, 0.357422, 0.097444, -0.011757, -0.034376, 0.999980, -0.000585, -0.005317, -0.003312, -172.192058, -68.487841, 79.053581, , , 0.000000, , , 
06444, , 9.814359, -0.521801, -3.366204, -0.009796, 0.492225, 0.564276, -0.129245, -1.091821, -0.697871, -0.843262, 0.497070, 0.365967, 0.098306, -0.005582, -0.033122, 0.999979, -0.000646, -0.005459, -0.003489, -173.457589, -67.917726, 80.336749, , , 0.000000, , , 
06445, , 9.746876, -0.350357, -3.398350, 0.089195, 0.542037, 0.500881, -0.235771, -1.132847, -0.740842, -0.840820, 0.490479, 0.374512, 0.097645, -0.003905, -0.033426, 0.999976, -0.001179, -0.005664, -0.003704, -174.728298, -67.333549, 81.559020, , , 0.000000, , , 
06446, , 9.695120, -1.067345, -3.748004, -0.721676, 0.368441, 0.604781, -0.339547, -1.167906, -0.782656, -0.838623, 0.483887, 0.389648, 0.097125, -0.011116, -0.036895, 0.999974, -0.001698, -0.005839, -0.003913, -176.106565, -66.702925, 82.844786, , , 0.000000, , , 
06447, , 9.751434, -0.525021, -3.940559, -0.266200, 0.305104, 0.710055, -0.248843, -1.201313, -0.862271, -0.840576, 0.468750, 0.400391, 0.097725, -0.005720, -0.038812, 0.999972, -0.001244, -0.006007, -0.004311, -177.403074, -66.062495, 84.102346, , , 0.000000, , , 
06448, , 9.743746, -0.276588, -3.927310, -0.110744, 0.432854, 0.686781, -0.394992, -1.245148, -0.940124, -0.842529, 0.462158, 0.413330, 0.097665, -0.003301, -0.038659, 0.999968, -0.001975, -0.006226, -0.004701, -178.877011, -65.367466, 85.471152, , , 0.000000, , , 
06449, , 9.932969, 0.150425, -3.851902, 0.221053, 0.694023, 0.816992, -0.518276, -1.362014, -1.039704, -0.840088, 0.453369, 0.423828, 0.099595, 0.000888, -0.037844, 0.999960, -0.002591, -0.006810, -0.005198, 179.565531, -64.612496, 86.850316, , , 0.000000, , , 
06450, , 11.165650, -0.525077, -3.258102, -0.515132, 1.966311, 1.651453, -0.753557, -1.509248, -1.095253, -0.839844, 0.440186, 0.441162, 0.111867, -0.005984, -0.031716, 0.999949, -0.003768, -0.007546, -0.005476, 177.874451, -63.734441, 88.249445, , , 0.000000, , , 
06451, , 12.615411, 0.702502, -2.989935, 0.606153, 2.955273, 2.815661, -0.746585, -1.535595, -1.158853, -0.837402, 0.427246, 0.458252, 0.126416, 0.006184, -0.028954, 0.999947, -0.003733, -0.007678, -0.005794, 176.257903, -62.852464, 89.575600, , , 0.000000, , , 
06452, , 12.514421, 2.107347, -2.868532, 1.854742, 3.129234, 2.678991, -0.969679, -1.612461, -1.222737, -0.834717, 0.409912, 0.471191, 0.125496, 0.020171, -0.027774, 0.999937, -0.004848, -0.008062, -0.006114, 174.508036, -61.875690, 90.923815, , , 0.000000, , , 
06453, , 12.914880, 1.880919, -2.891429, 1.453856, 3.511842, 3.002891, -1.262901, -1.629985, -1.241311, -0.827881, 0.396729, 0.494873, 0.129492, 0.017828, -0.027974, 0.999928, -0.006314, -0.008150, -0.006206, 172.695430, -60.910336, 92.146969, , , 0.000000, , , 
06454, , 12.520632, 1.470928, -3.073067, 0.853190, 3.401557, 2.680051, -1.282602, -1.608224, -1.298365, -0.827637, 0.381592, 0.507812, 0.125540, 0.013702, -0.029812, 0.999926, -0.006413, -0.008041, -0.006492, 170.893514, -59.892670, 93.374355, , , 0.000000, , , 
06455, , 12.793285, 1.254083, -3.403437, 0.409027, 3.475745, 3.015737, -1.321501, -1.680316, -1.344295, -0.822754, 0.361816, 0.531494, 0.128293, 0.011459, -0.033036, 0.999920, -0.006607, -0.008401, -0.006721, 169.156057, -58.859712, 94.491129, , , 0.000000, , , 
06456, , 13.243377, 0.734507, -2.737010, -0.243240, 4.551807, 2.939988, -1.506374, -1.762925, -1.441733, -0.813477, 0.344482, 0.550781, 0.132716, 0.006188, -0.026251, 0.999907, -0.007532, -0.008814, -0.007208, 167.315742, -57.702949, 95.640225, , , 0.000000, , , 
06457, , 13.009114, -0.311256, -2.269601, -1.394678, 5.147514, 2.271736, -1.578202, -1.858382, -1.516455, -0.812988, 0.320557, 0.565918, 0.130265, -0.004272, -0.021455, 0.999897, -0.007891, -0.009292, -0.007582, 165.508661, -56.517042, 96.681203, , , 0.000000, , , 
06458, , 13.723398, -0.274833, -1.912173, -1.550214, 6.094795, 2.536476, -1.727603, -2.023357, -1.599626, -0.799072, 0.290283, 0.589844, 0.137389, -0.004004, -0.017701, 0.999880, -0.008638, -0.010116, -0.007998, 163.669242, -55.156348, 97.708270, , , 0.000000, , , 
06459, , 14.967094, -0.712235, -0.909237, -2.095549, 7.940371, 2.752803, -1.895746, -2.162248, -1.681948, -0.791748, 0.266357, 0.613525, 0.149690, -0.008457, -0.007398, 0.999861, -0.009478, -0.010811, -0.008409, 161.803937, -53.761602, 98.605542, , , 0.000000, , , 
06460, , 15.923964, -0.861196, -0.335076, -2.417943, 9.295161, 2.921560, -2.018841, -2.275033, -1.781077, -0.782471, 0.242432, 0.633057, 0.159178, -0.010051, -0.001443, 0.999845, -0.010094, -0.011375, -0.008905, 159.933823, -52.196134, 99.499401, , , 0.000000, , , 
06461, , 17.274772, -1.025981, 0.430118, -2.729745, 11.064625, 3.216254, -2.217550, -2.454596, -1.838601, -0.766357, 0.214111, 0.654785, 0.172573, -0.011783, 0.006545, 0.999821, -0.011087, -0.012272, -0.009192, 158.055188, -50.598763, 100.190463, , , 0.000000, , , 
06462, , 18.115410, -1.869698, 1.336556, -3.599023, 12.766591, 2.736441, -2.484971, -2.577089, -1.936814, -0.752197, 0.186035, 0.680664, 0.180769, -0.020261, 0.015942, 0.999793, -0.012424, -0.012885, -0.009683, 156.102937, -48.807057, 100.883652, , , 0.000000, , , 
06463, , 18.845997, -3.946704, 1.138820, -5.855702, 13.744576, 2.385654, -2.537712, -2.697807, -2.077002, -0.731445, 0.146973, 0.706787, 0.187857, -0.041250, 0.014441, 0.999775, -0.012688, -0.013488, -0.010384, 154.184018, -47.029406, 101.403066, , , 0.000000, , , 
06464, , 18.607200, -6.465840, 0.567174, -8.520422, 13.936976, 1.208497, -2.358495, -2.841523, -2.159181, -0.721924, 0.116455, 0.728516, 0.185247, -0.066568, 0.009085, 0.999771, -0.011792, -0.014207, -0.010795, 152.443890, -45.019618, 101.943707, , , 0.000000, , , 
06465, , 19.260360, -4.841671, 0.018210, -7.383791, 14.217090, 1.921830, -2.150091, -3.033048, -2.416883, -0.696777, 0.083984, 0.750244, 0.191962, -0.050712, 0.003634, 0.999754, -0.010750, -0.015164, -0.012083, 150.845773, -42.986320, 102.319110, , , 0.000000, , , 
06466, , 20.568645, -7.237938, -1.704246, -10.606890, 14.781029, 2.323986, -2.525332, -2.838645, -2.560366, -0.682617, 0.044922, 0.772217, 0.204941, -0.075189, -0.013192, 0.999738, -0.012626, -0.014192, -0.012801, 148.990287, -40.844049, 102.931012, , , 0.000000, , , 
06467, , 18.841269, -7.906045, -3.779486, -11.885804, 12.702046, 1.549415, -2.119651, -2.770856, -2.813443, -0.659424, 0.008057, 0.785645, 0.187764, -0.082081, -0.034331, 0.999749, -0.010597, -0.013853, -0.014066, 147.361136, -38.842282, 103.389599, , , 0.000000, , , 
06468, , 17.707617, -8.115705, -5.462283, -12.802648, 11.201224, 1.134099, -0.948791, -2.778342, -2.864687, -0.632568, -0.009033, 0.802734, 0.176620, -0.083939, -0.051773, 0.999790, -0.004744, -0.013891, -0.014322, 146.425901, -36.612700, 104.030081, , , 0.000000, , , 
06469, , 16.860417, -9.192811, -3.561617, -12.932338, 12.164558, -1.675678, -0.207322, -2.639681, -2.426658, -0.607666, -0.026367, 0.817871, 0.167922, -0.094004, -0.033300, 0.999839, -0.001037, -0.013198, -0.012133, 146.136799, -34.813468, 104.121279, , , 0.000000, , , 
06470, , 14.586831, -6.059069, -4.158190, -10.092107, 9.842033, -1.563245, 1.240832, -2.041045, -1.989052, -0.596680, -0.019775, 0.832520, 0.145675, -0.061787, -0.040475, 0.999879, 0.006204, -0.010205, -0.009945, 146.643804, -33.209205, 104.486779, , , 0.000000, , , 
06471, , 11.071642, -1.043869, -5.438036, -5.455680, 5.980889, -0.447652, 1.905681, -1.847792, -1.504490, -0.581299, -0.013184, 0.838867, 0.111133, -0.010761, -0.053456, 0.999884, 0.009528, -0.009239, -0.007522, 147.748910, -32.104271, 104.311969, , , 0.000000, , , 
06472, , 10.312204, 2.849932, -6.421646, -2.192586, 4.755324, 1.513148, 2.263750, -1.618187, -1.259325, -0.572510, -0.006592, 0.855469, 0.103815, 0.028565, -0.063055, 0.999883, 0.011318, -0.008091, -0.006296, 148.967542, -30.937153, 104.463137, , , 0.000000, , , 
06473, , 11.923137, 0.637961, -1.209266, -2.414730, 9.223256, -2.523703, 0.781042, -0.814818, -0.974269, -0.566162, 0.002197, 0.859619, 0.119309, 0.005844, -0.011583, 0.999972, 0.003905, -0.004074, -0.004871, 149.379675, -30.524031, 104.388446, , , 0.000000, , , 
06474, , 9.018011, -1.664138, 1.922266, -2.708545, 8.640356, -7.405046, 0.232881, -0.098503, -0.589063, -0.561523, -0.004395, 0.857666, 0.090121, -0.016929, 0.019247, 0.999995, 0.001164, -0.000493, -0.002945, 149.359720, -30.304472, 104.692848, , , 0.000000, , , 
06475, , 7.841578, -2.706390, 0.925447, -3.757941, 7.143541, -7.686899, 0.166420, 0.270020, -0.168620, -0.568115, -0.002197, 0.857666, 0.078405, -0.027138, 0.009126, 0.999998, 0.000832, 0.001350, -0.000843, 149.464710, -30.670644, 104.513063, , , 0.000000, , , 
06476, , 7.256584, -0.940228, -0.214072, -2.497062, 5.940189, -6.339016, 0.501496, 0.753074, 0.140803, -0.581543, 0.000000, 0.855469, 0.072564, -0.009345, -0.002437, 0.999990, 0.002507, 0.003765, 0.000704, 149.663347, -31.084714, 104.687532, , , 0.000000, , , 
06477, , 6.503091, 0.342792, -0.820638, -1.375792, 4.875438, -5.639230, 0.508561, 1.352001, 0.365453, -0.597412, 0.006348, 0.838379, 0.064967, 0.003568, -0.008637, 0.999972, 0.002543, 0.006760, 0.001827, 149.915231, -32.157825, 104.569665, , , 0.000000, , , 
06478, , 5.506980, -0.166262, -0.946653, -1.674581, 3.938733, -6.216622, 0.387588, 1.941574, 0.578189, -0.610840, 0.019287, 0.831787, 0.054979, -0.001485, -0.010004, 0.999947, 0.001938, 0.009708, 0.002891, 149.963961, -33.287998, 104.892008, , , 0.000000, , , 
06479, , 4.692528, -1.143284, -1.176012, -2.443026, 3.103581, -6.794755, 0.567881, 2.407031, 0.894340, -0.633301, 0.027832, 0.819092, 0.046829, -0.011189, -0.012356, 0.999914, 0.002839, 0.012035, 0.004472, 150.207066, -35.053420, 104.822629, , , 0.000000, , , 
06480, , 5.187691, -0.631704, -1.263270, -2.098021, 3.311368, -6.133309, 0.735913, 2.786623, 1.227862, -0.660400, 0.042969, 0.799805, 0.051731, -0.005951, -0.013377, 0.999877, 0.003679, 0.013933, 0.006139, 150.500023, -36.790723, 105.043679, , , 0.000000, , , 
06481, , 5.645460, 0.039840, -1.564322, -1.620404, 3.283405, -5.239972, 0.775552, 3.196626, 1.524997, -0.696289, 0.062256, 0.780273, 0.056189, 0.000891, -0.016540, 0.999836, 0.003878, 0.015982, 0.007625, 150.928562, -39.115381, 104.860620, , , 0.000000, , , 
06482, , 6.024572, -0.066438, -2.068006, -1.908698, 3.061335, -4.563288, 0.699462, 3.503320, 1.821658, -0.716797, 0.081787, 0.754639, 0.059873, -0.000043, -0.021732, 0.999799, 0.003497, 0.017515, 0.009108, 151.282358, -41.379007, 104.934958, , , 0.000000, , , 
06483, , 6.683071, -0.017736, -2.181790, -1.922980, 3.210564, -3.862036, 0.787182, 3.823594, 2.127586, -0.746094, 0.101074, 0.726807, 0.066394, 0.000620, -0.023089, 0.999753, 0.003936, 0.019116, 0.010637, 151.856822, -44.186291, 104.557253, , , 0.000000, , , 
06484, , 7.389091, 0.197528, -1.854246, -1.653068, 3.638892, -3.324984, 0.960596, 4.142949, 2.406592, -0.777588, 0.126953, 0.694580, 0.073454, 0.002955, -0.020055, 0.999702, 0.004803, 0.020713, 0.012032, 152.522126, -46.931298, 104.397950, , , 0.000000, , , 
06485, , 7.900682, 0.616010, -1.779686, -1.169912, 3.639708, -2.647747, 1.035680, 4.445542, 2.647196, -0.809326, 0.153076, 0.662354, 0.078494, 0.007299, -0.019510, 0.999652, 0.005178, 0.022225, 0.013234, 153.422594, -50.167317, 103.780437, , , 0.000000, , , 
06486, , 8.169407, 1.001355, -1.922246, -0.735691, 3.276678, -2.057623, 1.022933, 4.686324, 2.857204, -0.839111, 0.191895, 0.621338, 0.081060, 0.011279, -0.021071, 0.999610, 0.005114, 0.023429, 0.014284, 154.375435, -53.301089, 103.315009, , , 0.000000, , , 
06487, , 8.524214, 1.237178, -2.494992, -0.497456, 2.530917, -1.225351, 1.067518, 4.877638, 3.053733, -0.864258, 0.222412, 0.578613, 0.084398, 0.013805, -0.026944, 0.999572, 0.005337, 0.024385, 0.015266, 155.667803, -56.837505, 102.278945, , , 0.000000, , , 
06488, , 9.089395, 1.263069, -2.940006, -0.431244, 1.968004, -0.390975, 1.115176, 5.055589, 3.230131, -0.889404, 0.259277, 0.533447, 0.089892, 0.014260, -0.031605, 0.999535, 0.005575, 0.025274, 0.016148, 157.186544, -60.235070, 101.249360, , , 0.000000, , , 
06489, , 9.545739, 1.191902, -3.359979, -0.364253, 1.249586, 0.291895, 1.180227, 5.215951, 3.410981, -0.914551, 0.293945, 0.479980, 0.094315, 0.013742, -0.035992, 0.999497, 0.005900, 0.026075, 0.017052, 159.329437, -63.984173, 99.381682, , , 0.000000, , , 
06490, , 10.334045, 1.075651, -3.616019, -0.298638, 0.768524, 1.155545, 1.260929, 5.347154, 3.593071, -0.926270, 0.326660, 0.420166, 0.102108, 0.012838, -0.038825, 0.999461, 0.006304, 0.026731, 0.017962, 162.124681, -67.558813, 97.111172, , , 0.000000, , , 
06491, , 11.311937, 1.239991, -3.909124, 0.117489, 0.110038, 2.216350, 1.384553, 5.488635, 3.748096, -0.931641, 0.374512, 0.368408, 0.111730, 0.014787, -0.042074, 0.999424, 0.006921, 0.027438, 0.018737, 166.373723, -71.406049, 93.234075, , , 0.000000, , , 
06492, , 12.436349, 1.256797, -4.022277, 0.480470, -0.411692, 3.300331, 1.420138, 5.632024, 3.882543, -0.939209, 0.411621, 0.306396, 0.122888, 0.015265, -0.043596, 0.999390, 0.007099, 0.028154, 0.019409, 172.474229, -74.993022, 87.715894, , , 0.000000, , , 
06493, , 13.458928, 1.246760, -4.692236, 0.825070, -1.696431, 4.367168, 1.517313, 5.771917, 3.994637, -0.933350, 0.453125, 0.242188, 0.132873, 0.015508, -0.050664, 0.999355, 0.007585, 0.028853, 0.019969, -176.926726, -78.602229, 77.540657, , , 0.000000, , , 
06494, , 14.488945, 1.268748, -5.655382, 1.234682, -3.374046, 5.369718, 1.637208, 5.862446, 4.088882, -0.925049, 0.490479, 0.178223, 0.142846, 0.016108, -0.060639, 0.999328, 0.008184, 0.029306, 0.020440, -158.901138, -81.430504, 60.200877, , , 0.000000, , , 
06495, , 15.645590, 1.779131, -6.599837, 2.247703, -5.302602, 6.256058, 1.794799, 5.930093, 4.118231, -0.916748, 0.523193, 0.118408, 0.153993, 0.021598, -0.070407, 0.999308, 0.008972, 0.029644, 0.020586, -127.559583, -82.873761, 29.448777, , , 0.000000, , , 
06496, , 16.654275, 2.944025, -8.124120, 3.891271, -7.966667, 6.717989, 1.877393, 5.979216, 4.022280, -0.888672, 0.560547, 0.058350, 0.163374, 0.033539, -0.085856, 0.999307, 0.009385, 0.029889, 0.020107, -95.768629, -81.964088, -1.522134, , , 0.000000, , , 
06497, , 17.006532, 3.781073, -9.988818, 5.106142, -11.024239, 6.172080, 1.772295, 5.940236, 3.798085, -0.878174, 0.591309, -0.003418, 0.166237, 0.041905, -0.104505, 0.999339, 0.008860, 0.029695, 0.018986, -74.223115, -79.347615, -22.486167, , , 0.000000, , , 
06498, , 17.052944, 3.962894, -11.237353, 5.683796, -13.243299, 5.184705, 1.666539, 5.771042, 3.505106, -0.849609, 0.615723, -0.065186, 0.166460, 0.043532, -0.116865, 0.999395, 0.008331, 0.028849, 0.017522, -62.455413, -76.244769, -33.542224, , , 0.000000, , , 
06499, , 17.217940, 4.279677, -12.394009, 6.351693, -15.336784, 4.067377, 1.680750, 5.481649, 3.218541, -0.832275, 0.637695, -0.116455, 0.167975, 0.046588, -0.128202, 0.999460, 0.008402, 0.027403, 0.016090, -54.950140, -72.897236, -40.474836, , , 0.000000, , , 
06500, , 16.926509, 4.828587, -13.647171, 7.108846, -17.256956, 2.335374, 1.591358, 5.134387, 2.923980, -0.808350, 0.659668, -0.163330, 0.164955, 0.051825, -0.140341, 0.999532, 0.007956, 0.025668, 0.014618, -50.133744, -69.774031, -44.593351, , , 0.000000, , , 
06501, , 15.725739, 4.370742, -15.146286, 6.515949, -18.969965, -0.149751, 1.260286, 4.604829, 2.629561, -0.786377, 0.675293, -0.203857, 0.153119, 0.046707, -0.154732, 0.999629, 0.006301, 0.023021, 0.013146, -46.867123, -66.794125, -47.464238, , , 0.000000, , , 
06502, , 14.063352, 3.740239, -16.625099, 5.564718, -20.240648, -2.926315, 1.039721, 3.902281, 2.418391, -0.761963, 0.688477, -0.235840, 0.136884, 0.039946, -0.168743, 0.999723, 0.005198, 0.019510, 0.012091, -44.862266, -64.240015, -49.011222, , , 0.000000, , , 
06503, , 12.143879, 4.916496, -17.330834, 6.218773, -20.491671, -6.157374, 0.841257, 3.180463, 2.212011, -0.739990, 0.701904, -0.255127, 0.118106, 0.051217, -0.174992, 0.999804, 0.004206, 0.015901, 0.011059, -43.645313, -61.989715, -49.926029, , , 0.000000, , , 
06504, , 8.534349, 7.568608, -18.276322, 7.607454, -20.102231, -11.273219, 0.372791, 2.509514, 1.821840, -0.722412, 0.708496, -0.274170, 0.082346, 0.076787, -0.183667, 0.999878, 0.001864, 0.012547, 0.009109, -43.016585, -60.224949, -50.399228, , , 0.000000, , , 
06505, , 5.499129, 9.036743, -18.504807, 7.918513, -19.090740, -15.023918, -0.355086, 1.540751, 1.342629, -0.713867, 0.723877, -0.285156, 0.052956, 0.090398, -0.185622, 0.999946, -0.001775, 0.007704, 0.006713, -43.164554, -59.033616, -50.506365, , , 0.000000, , , 
06506, , 3.962767, 8.978309, -18.207490, 7.229089, -18.198439, -16.474396, -0.947310, 0.543810, 0.756363, -0.709473, 0.730469, -0.274658, 0.038794, 0.089067, -0.182604, 0.999978, -0.004737, 0.002719, 0.003782, -43.868931, -58.506704, -50.316485, , , 0.000000, , , 
06507, , 2.993183, 8.562575, -17.749090, 6.382220, -17.469795, -16.980311, -1.307368, -0.508468, 0.089523, -0.709473, 0.721680, -0.259766, 0.030346, 0.084477, -0.177969, 0.999975, -0.006537, -0.002542, 0.000448, -45.044284, -58.687920, -49.821021, , , 0.000000, , , 
06508, , 4.366556, 7.222576, -17.147567, 5.506426, -17.589900, -14.865661, -1.461073, -1.494734, -0.528875, -0.718506, 0.728027, -0.228271, 0.045137, 0.070854, -0.171663, 0.999942, -0.007305, -0.007474, -0.002644, -46.551075, -59.499752, -49.039695, , , 0.000000, , , 
06509, , 8.458383, 3.524971, -12.439047, 4.010563, -14.801516, -7.938830, -2.149032, -2.209469, -0.902938, -0.725098, 0.723633, -0.196289, 0.086108, 0.033531, -0.123811, 0.999871, -0.010745, -0.011047, -0.004514, -48.859023, -60.766625, -47.782449, , , 0.000000, , , 
06510, , 14.085584, -8.139265, -1.434776, -3.198077, -5.777795, 5.122745, -3.461173, -2.295048, -0.641280, -0.734131, 0.723389, -0.149902, 0.140735, -0.082057, -0.011316, 0.999779, -0.017305, -0.011474, -0.003206, -52.268829, -61.883380, -46.155643, , , 0.000000, , , 
06511, , 20.325764, -12.863350, 17.685276, -1.442061, 11.152385, 17.842361, -4.154385, -1.758760, -0.285752, -0.736572, 0.731934, -0.124756, 0.201496, -0.125188, 0.181254, 0.999745, -0.020770, -0.008793, -0.001429, -56.092030, -62.641160, -44.506860, , , 0.000000, , , 
06512, , 14.009516, -11.855373, 6.817396, -4.801049, 3.382889, 8.863347, 0.562990, -1.212609, -0.743510, -0.749756, 0.720947, -0.126465, 0.139237, -0.119265, 0.068685, 0.999971, 0.002815, -0.006063, -0.003718, -56.435129, -63.379123, -43.758971, , , 0.000000, , , 
06513, , 14.277584, 3.528405, -2.730234, 7.280794, -7.228051, 1.072370, 2.838712, -1.993388, -1.277257, -0.758301, 0.707764, -0.130615, 0.143258, 0.034740, -0.025380, 0.999829, 0.014193, -0.009966, -0.006386, -55.969657, -64.640652, -42.450932, , , 0.000000, , , 
06514, , 17.727758, 2.467175, -7.580646, 6.487890, -12.356455, 3.715882, 0.910410, -2.774528, -1.389298, -0.771484, 0.696777, -0.100830, 0.178473, 0.023772, -0.073226, 0.999869, 0.004552, -0.013872, -0.006946, -57.390720, -66.177144, -40.313789, , , 0.000000, , , 
06515, , 21.458588, 1.702044, -9.020979, 6.715030, -14.129409, 7.506972, 2.226539, -2.857420, -1.568676, -0.782227, 0.681396, -0.106689, 0.215973, 0.016310, -0.086946, 0.999805, 0.011132, -0.014286, -0.007843, -58.316782, -67.835285, -37.900413, , , 0.000000, , , 
06516, , 18.105609, 8.148201, -1.220540, 12.850346, -5.662526, 4.274939, 1.520855, -2.662755, -1.619747, -0.790771, 0.668213, -0.089600, 0.181844, 0.080089, -0.009175, 0.999850, 0.007604, -0.013313, -0.008098, -59.555636, -69.415683, -35.633630, , , 0.000000, , , 
06517, , 10.521304, -3.547428, -5.853778, -1.071549, -7.535376, 0.167810, 0.400169, -2.724741, -1.313859, -0.808350, 0.657227, -0.076660, 0.105763, -0.036053, -0.057171, 0.999884, 0.002001, -0.013623, -0.006569, -62.161246, -70.864913, -32.591223, , , 0.000000, , , 
06518, , 9.633350, -1.919791, -2.330886, 0.574679, -3.783704, -0.470872, 1.893938, -2.513426, -0.963786, -0.817139, 0.650635, -0.065918, 0.096524, -0.019449, -0.022280, 0.999865, 0.009469, -0.012567, -0.004819, -64.153317, -72.006402, -29.344430, , , 0.000000, , , 
06519, , 7.991874, -0.469003, -4.250181, 1.380564, -5.302434, -2.592650, 1.398363, -2.295986, -0.846208, -0.817139, 0.646240, -0.061768, 0.080380, -0.004736, -0.041614, 0.999901, 0.006992, -0.011480, -0.004231, -66.602037, -73.021277, -25.911106, , , 0.000000, , , 
06520, , 8.644261, -3.553043, -5.547062, -1.460315, -6.446269, -1.185519, 1.336717, -2.147577, -0.742917, -0.823486, 0.639648, -0.051025, 0.086901, -0.035485, -0.054776, 0.999913, 0.006683, -0.010738, -0.003714, -69.124393, -73.877871, -22.480041, , , 0.000000, , , 
06521, , 9.751801, -0.524172, -3.982569, 1.854225, -4.902970, -0.661002, 1.936793, -1.778067, -0.613867, -0.825684, 0.639648, -0.048828, 0.097851, -0.005161, -0.039007, 0.999909, 0.009684, -0.008890, -0.003069, -71.093795, -74.573932, -19.256310, , , 0.000000, , , 
06522, , 10.468780, 5.414690, -3.034270, 7.822436, -3.803533, -1.300403, 1.289994, -1.490737, -0.471835, -0.830078, 0.628662, -0.048584, 0.105036, 0.054090, -0.029212, 0.999949, 0.006450, -0.007454, -0.002359, -73.036657, -75.092744, -16.476748, , , 0.000000, , , 
06523, , 11.496282, 4.834131, -2.116104, 7.504194, -2.785619, -0.017961, -0.299841, -1.351774, -0.301395, -0.830078, 0.628662, -0.031738, 0.115175, 0.048137, -0.020455, 0.999975, -0.001499, -0.006759, -0.001507, -75.990322, -75.482034, -13.579770, , , 0.000000, , , 
06524, , 12.035756, 2.635836, -1.212129, 5.478413, -1.822625, 1.139032, -1.147178, -1.206105, -0.108203, -0.834473, 0.630859, -0.012695, 0.120443, 0.026226, -0.011546, 0.999965, -0.005736, -0.006030, -0.000541, -79.212060, -75.689688, -10.931156, , , 0.000000, , , 
06525, , 12.038843, 0.079034, -1.104522, 2.981591, -1.591131, 1.794929, -1.658172, -1.154836, 0.006753, -0.834473, 0.630859, 0.006348, 0.120450, 0.000707, -0.010356, 0.999949, -0.008291, -0.005774, 0.000034, -82.848986, -75.804108, -8.144223, , , 0.000000, , , 
06526, , 11.529627, -3.048599, -1.297873, -0.190529, -1.572840, 2.078407, -1.483430, -1.082961, 0.001177, -0.830078, 0.630615, 0.027344, 0.115364, -0.030577, -0.012128, 0.999958, -0.007417, -0.005415, 0.000006, -86.135491, -75.861974, -5.630408, , , 0.000000, , , 
06527, , 10.334504, -4.998243, -1.561576, -2.389919, -1.595089, 1.410739, -0.692283, -0.997270, -0.049182, -0.832275, 0.626221, 0.033936, 0.103408, -0.050060, -0.014927, 0.999982, -0.003461, -0.004986, -0.000246, -88.903500, -75.925793, -3.175624, , , 0.000000, , , 
06528, , 9.241115, -4.305486, -0.942791, -1.966248, -0.876428, 0.196781, 0.148669, -0.958323, -0.097954, -0.832275, 0.622070, 0.038086, 0.092434, -0.043093, -0.009017, 0.999988, 0.000743, -0.004792, -0.000490, -91.001929, -75.981590, -0.923870, , , 0.000000, , , 
06529, , 9.041757, -3.708983, -0.857790, -1.436778, -0.735384, -0.135896, 0.568306, -0.910621, -0.100272, -0.832275, 0.626221, 0.042236, 0.090437, -0.037111, -0.008272, 0.999985, 0.002842, -0.004553, -0.000501, -92.866738, -76.029453, 1.345427, , , 0.000000, , , 
06530, , 9.495470, -2.509846, -1.204742, -0.171176, -1.050137, 0.025110, 0.785904, -0.880104, -0.091700, -0.834473, 0.624023, 0.042236, 0.094995, -0.025096, -0.011728, 0.999982, 0.003929, -0.004400, -0.000458, -94.443069, -76.049130, 3.434592, , , 0.000000, , , 
06531, , 10.018377, -0.905928, -1.402592, 1.510422, -1.198572, 0.159144, 0.578720, -0.796429, -0.096241, -0.830078, 0.626221, 0.044434, 0.100234, -0.009068, -0.013653, 0.999988, 0.002894, -0.003982, -0.000481, -96.039254, -76.066908, 5.431041, , , 0.000000, , , 
06532, , 10.276550, 0.203527, -1.131603, 2.650962, -0.861841, 0.145152, 0.005063, -0.734759, -0.055459, -0.834717, 0.632812, 0.052734, 0.102807, 0.002007, -0.010938, 0.999993, 0.000025, -0.003674, -0.000277, -97.723857, -76.047548, 7.170647, , , 0.000000, , , 
06533, , 10.013706, 0.727408, -0.874664, 3.095195, -0.545731, -0.237195, -0.729361, -0.714284, 0.023343, -0.832275, 0.624023, 0.067627, 0.100167, 0.007255, -0.008415, 0.999987, -0.003647, -0.003571, 0.000117, -99.821168, -75.973629, 8.908164, , , 0.000000, , , 
06534, , 9.477271, -0.456748, -1.038423, 1.811861, -0.634095, -0.462811, -1.421685, -0.735643, 0.064862, -0.830078, 0.626221, 0.080322, 0.094811, -0.004609, -0.010003, 0.999968, -0.007108, -0.003678, 0.000324, -102.244884, -75.856197, 10.568071, , , 0.000000, , , 
06535, , 9.271404, -2.260023, -1.070395, 0.004354, -0.516607, -0.223920, -1.656706, -0.777597, 0.043950, -0.823242, 0.617432, 0.097412, 0.092759, -0.022665, -0.010156, 0.999958, -0.008283, -0.003888, 0.000220, -104.946265, -75.729186, 12.377439, , , 0.000000, , , 
06536, , 9.197593, -3.659364, -0.913825, -1.372745, -0.173151, 0.031393, -1.453668, -0.821723, -0.029336, -0.825439, 0.615234, 0.110107, 0.092006, -0.036670, -0.008494, 0.999965, -0.007268, -0.004109, -0.000147, -107.555990, -75.613511, 14.212201, , , 0.000000, , , 
06537, , 9.031852, -4.765561, -0.837685, -2.493047, 0.096438, 0.125152, -1.053968, -0.861145, -0.135881, -0.827637, 0.613037, 0.125000, 0.090320, -0.047759, -0.007736, 0.999977, -0.005270, -0.004306, -0.000679, -110.128194, -75.529927, 16.248064, , , 0.000000, , , 
06538, , 8.760201, -4.318998, -0.986432, -2.151608, 0.010614, -0.234719, -0.495097, -0.905165, -0.267587, -0.827637, 0.615234, 0.129150, 0.087587, -0.043331, -0.009361, 0.999986, -0.002475, -0.004526, -0.001338, -112.485729, -75.484504, 18.390975, , , 0.000000, , , 
06539, , 8.631350, -3.247717, -0.875123, -1.164371, 0.126739, -0.623510, -0.365551, -0.992151, -0.393842, -0.827637, 0.610840, 0.146240, 0.086291, -0.032663, -0.008264, 0.999984, -0.001828, -0.004961, -0.001969, -115.095431, -75.462415, 20.875278, , , 0.000000, , , 
06540, , 8.618146, -3.392539, -1.423761, -1.376273, -0.303698, -0.548703, -0.391605, -1.058313, -0.473419, -0.820801, 0.606445, 0.148193, 0.086174, -0.034157, -0.013715, 0.999981, -0.001958, -0.005292, -0.002367, -117.866053, -75.435263, 23.506794, , , 0.000000, , , 
06541, , 8.790863, -2.101856, -1.388614, -0.122085, -0.253584, -0.672397, -0.405973, -1.126704, -0.534861, -0.820801, 0.602051, 0.167480, 0.087928, -0.021281, -0.013348, 0.999978, -0.002030, -0.005633, -0.002674, -120.863395, -75.383310, 26.367323, , , 0.000000, , , 
06542, , 9.089463, -1.784105, -1.311702, 0.212470, -0.056186, -0.460031, -0.671856, -1.161475, -0.570551, -0.829590, 0.595459, 0.184570, 0.090917, -0.018143, -0.012528, 0.999973, -0.003359, -0.005807, -0.002853, -124.055734, -75.302655, 29.270034, , , 0.000000, , , 
06543, , 9.073237, -1.583380, -1.645100, 0.329542, -0.278598, -0.466610, -0.694015, -1.255978, -0.614947, -0.827148, 0.586670, 0.195312, 0.090784, -0.016169, -0.015825, 0.999970, -0.003470, -0.006280, -0.003075, -127.475910, -75.163006, 32.393858, , , 0.000000, , , 
06544, , 9.202636, -1.441949, -1.750029, 0.430731, -0.243030, -0.347817, -0.717110, -1.335639, -0.673279, -0.833740, 0.580078, 0.203857, 0.092091, -0.014791, -0.016833, 0.999966, -0.003586, -0.006678, -0.003366, -131.015241, -74.978526, 35.632470, , , 0.000000, , , 
06545, , 9.236844, -2.391588, -1.832663, -0.556478, -0.066968, -0.113145, -0.758152, -1.398691, -0.715255, -0.829102, 0.573730, 0.218750, 0.092407, -0.024314, -0.017589, 0.999962, -0.003791, -0.006993, -0.003576, -134.670353, -74.732357, 38.971830, , , 0.000000, , , 
06546, , 9.600647, -3.042023, -2.373113, -1.225678, -0.300881, 0.456806, -0.571640, -1.466431, -0.741006, -0.831299, 0.567139, 0.239990, 0.096063, -0.030842, -0.022939, 0.999962, -0.002858, -0.007332, -0.003705, -138.202605, -74.417290, 42.297173, , , 0.000000, , , 
06547, , 10.073989, -2.280181, -3.096997, -0.514002, -0.845313, 0.924836, -0.300663, -1.476713, -0.767106, -0.828857, 0.553955, 0.246582, 0.100876, -0.023234, -0.030191, 0.999964, -0.001503, -0.007383, -0.003835, -141.503826, -74.051095, 45.551546, , , 0.000000, , , 
06548, , 10.176499, -0.742221, -2.895160, 0.959430, -0.647929, 0.730127, -0.249628, -1.484925, -0.805647, -0.828857, 0.551758, 0.261475, 0.101945, -0.007868, -0.028185, 0.999964, -0.001248, -0.007425, -0.004028, -144.677916, -73.649421, 48.708022, , , 0.000000, , , 
06549, , 10.050341, -0.169590, -2.759979, 1.438323, -0.443730, 0.501722, -0.428968, -1.541352, -0.812923, -0.828613, 0.540771, 0.282715, 0.100704, -0.002163, -0.026820, 0.999960, -0.002145, -0.007707, -0.004065, -147.873733, -73.172540, 51.791821, , , 0.000000, , , 
06550, , 9.986669, -0.728487, -2.013193, 0.869508, 0.506946, 0.351025, -0.702096, -1.621300, -0.795003, -0.826172, 0.532227, 0.297607, 0.099995, -0.007751, -0.019295, 0.999953, -0.003510, -0.008106, -0.003975, -151.076099, -72.605323, 54.722498, , , 0.000000, , , 
06551, , 9.643141, -1.135895, -2.723869, 0.271053, -0.021249, 0.268103, -1.006236, -1.704154, -0.814568, -0.823975, 0.527832, 0.310547, 0.096611, -0.011886, -0.026357, 0.999943, -0.005031, -0.008521, -0.004073, -154.359564, -71.947253, 57.563517, , , 0.000000, , , 
06552, , 10.484682, -0.844228, -2.549634, 0.630898, 0.529149, 0.978948, -1.112101, -1.810990, -0.799578, -0.830078, 0.510254, 0.336182, 0.105036, -0.009000, -0.024497, 0.999936, -0.005560, -0.009055, -0.003998, -157.515286, -71.188404, 60.219130, , , 0.000000, , , 
06553, , 10.321446, 0.524681, -1.882625, 1.928354, 1.124827, 0.452013, -1.316896, -1.781045, -0.927602, -0.818848, 0.503662, 0.353271, 0.103399, 0.004647, -0.017938, 0.999928, -0.006584, -0.008905, -0.004638, -160.740549, -70.423566, 62.838739, , , 0.000000, , , 
06554, , 10.171136, -1.203832, -2.190249, 0.076369, 1.273448, 0.582759, -1.531762, -1.976333, -0.992976, -0.823242, 0.490723, 0.380859, 0.101859, -0.012706, -0.020801, 0.999910, -0.007659, -0.009881, -0.004965, -164.040459, -69.518382, 65.417821, , , 0.000000, , , 
06555, , 10.991411, -1.447746, -2.549182, -0.198065, 1.492717, 1.462537, -1.475528, -2.053691, -1.106783, -0.816162, 0.473145, 0.404541, 0.110084, -0.015268, -0.024251, 0.999905, -0.007377, -0.010268, -0.005534, -167.243175, -68.534455, 67.945028, , , 0.000000, , , 
06556, , 11.960067, -1.139373, -2.719859, 0.086879, 1.889103, 2.359162, -1.214463, -2.104561, -1.252746, -0.813721, 0.460205, 0.426025, 0.119802, -0.012303, -0.025866, 0.999907, -0.006072, -0.010522, -0.006264, -170.261224, -67.493932, 70.450244, , , 0.000000, , , 
06557, , 12.723330, -0.881872, -3.010394, 0.247397, 2.155968, 3.110286, -1.181178, -2.142339, -1.391318, -0.806396, 0.436279, 0.441162, 0.127479, -0.009877, -0.028683, 0.999901, -0.005906, -0.010711, -0.006956, -173.202660, -66.392488, 72.911847, , , 0.000000, , , 
06558, , 13.130571, -0.758066, -3.505779, 0.170332, 2.169029, 3.623482, -1.204637, -2.218649, -1.508616, -0.799561, 0.427490, 0.466797, 0.131620, -0.008778, -0.033548, 0.999892, -0.006023, -0.011093, -0.007543, -176.069145, -65.209928, 75.298656, , , 0.000000, , , 
06559, , 13.282669, -0.263393, -3.194818, 0.537630, 2.759364, 3.558503, -1.312307, -2.292537, -1.593623, -0.799072, 0.401367, 0.496826, 0.133153, -0.003897, -0.030400, 0.999881, -0.006561, -0.011462, -0.007968, -178.857401, -63.940150, 77.556089, , , 0.000000, , , 
06560, , 13.559338, 0.161917, -2.624432, 0.886608, 3.649744, 3.478228, -1.476982, -2.332227, -1.666812, -0.787598, 0.386230, 0.516113, 0.135893, 0.000301, -0.024666, 0.999870, -0.007385, -0.011661, -0.008334, 178.412679, -62.602587, 79.666008, , , 0.000000, , , 
06561, , 13.571196, 0.423125, -2.725381, 0.922315, 3.876901, 3.449567, -1.810585, -2.424826, -1.716061, -0.782715, 0.362305, 0.541992, 0.136058, 0.002828, -0.025635, 0.999849, -0.009052, -0.012124, -0.008580, 175.673787, -61.163662, 81.592308, , , 0.000000, , , 
06562, , 14.596512, 0.884158, -1.726885, 1.441795, 5.497322, 3.770590, -2.040155, -2.513785, -1.725646, -0.777588, 0.331787, 0.565918, 0.146236, 0.007416, -0.015512, 0.999832, -0.010200, -0.012568, -0.008628, 173.024435, -59.635548, 83.295842, , , 0.000000, , , 
06563, , 15.608199, 1.029759, -0.852744, 1.632858, 7.095826, 4.056956, -2.348720, -2.559276, -1.805836, -0.763672, 0.305664, 0.595947, 0.156259, 0.008802, -0.006638, 0.999808, -0.011743, -0.012796, -0.009029, 170.336003, -58.038149, 84.860909, , , 0.000000, , , 
06564, , 17.330266, -0.557852, 0.024037, 0.192221, 9.515018, 4.680396, -2.684283, -2.694564, -1.851134, -0.749756, 0.275391, 0.621826, 0.173216, -0.007157, 0.002664, 0.999776, -0.013420, -0.013472, -0.009255, 167.642359, -56.322782, 86.236965, , , 0.000000, , , 
06565, , 19.380419, -0.741997, 1.775487, 0.395039, 12.557178, 5.067869, -2.710709, -2.764582, -1.823443, -0.735840, 0.244873, 0.645752, 0.193456, -0.008919, 0.020545, 0.999771, -0.013553, -0.013822, -0.009117, 165.154741, -54.541653, 87.362707, , , 0.000000, , , 
06566, , 20.893678, -0.657812, 4.214900, 1.126295, 15.769527, 4.496709, -3.064297, -2.838498, -1.873044, -0.719482, 0.210205, 0.673828, 0.208240, -0.007853, 0.045222, 0.999738, -0.015320, -0.014191, -0.009364, 162.613549, -52.684083, 88.339357, , , 0.000000, , , 
06567, , 21.697340, -1.669918, 4.962141, 0.390413, 17.543289, 3.979333, -3.636682, -2.875757, -1.974163, -0.705322, 0.171143, 0.695801, 0.216054, -0.017891, 0.053051, 0.999683, -0.018181, -0.014377, -0.009870, 159.842762, -50.770200, 89.200050, , , 0.000000, , , 
06568, , 20.160700, -2.730703, 2.085135, -1.667231, 15.285900, 3.669362, -3.999297, -3.014029, -2.152803, -0.679932, 0.125488, 0.724121, 0.200950, -0.029008, 0.024452, 0.999629, -0.019994, -0.015068, -0.010763, 156.948504, -48.713289, 89.990853, , , 0.000000, , , 
06569, , 21.909003, -3.112965, 0.164384, -2.887913, 15.812805, 5.394415, -3.923120, -3.115903, -2.607309, -0.660889, 0.075684, 0.750488, 0.218592, -0.033896, 0.005699, 0.999601, -0.019613, -0.015577, -0.013035, 154.020847, -46.484812, 90.889062, , , 0.000000, , , 
06570, , 23.307038, -10.746656, -3.225224, -11.449151, 17.596018, 5.295164, -4.281023, -2.830406, -2.811630, -0.644287, 0.025635, 0.766113, 0.231926, -0.111343, -0.026608, 0.999572, -0.021402, -0.014150, -0.014056, 150.880585, -44.304738, 91.855372, , , 0.000000, , , 
06571, , 22.395863, -16.475976, -4.189621, -16.987636, 19.011545, 2.033587, -4.578244, -3.263905, -2.366778, -0.612305, -0.019775, 0.783936, 0.222584, -0.168245, -0.034431, 0.999535, -0.022888, -0.016317, -0.011832, 148.052593, -42.025664, 92.124904, , , 0.000000, , , 
06572, , 19.235381, -14.736280, -6.769496, -16.710675, 15.328855, 1.080778, -1.909523, -2.906726, -2.642793, -0.589355, -0.047852, 0.799316, 0.191322, -0.150515, -0.063482, 0.999762, -0.009547, -0.014532, -0.013213, 146.632741, -39.809142, 92.623519, , , 0.000000, , , 
06573, , 16.542795, -10.772418, -3.523377, -11.639298, 14.221997, -1.790713, 0.079867, -2.687141, -2.516792, -0.564697, -0.052002, 0.818359, 0.164509, -0.109785, -0.033063, 0.999830, 0.000399, -0.013435, -0.012583, 146.401240, -37.755130, 93.033022, , , 0.000000, , , 
06574, , 14.916491, -7.963080, -5.456060, -10.298303, 11.273965, -0.729084, 1.329033, -2.501302, -2.233923, -0.547363, -0.043213, 0.833008, 0.148937, -0.080939, -0.053232, 0.999837, 0.006645, -0.012506, -0.011169, 146.952090, -35.857187, 93.386317, , , 0.000000, , , 
06575, , 12.196760, -2.104587, -10.533189, -7.702781, 5.005609, 3.594164, 3.975942, -1.784920, -2.029137, -0.527832, -0.021240, 0.841064, 0.122696, -0.020203, -0.104646, 0.999711, 0.019878, -0.008924, -0.010145, 148.928836, -34.402416, 93.872517, , , 0.000000, , , 
06576, , 9.612560, 3.406138, -6.310741, -0.519923, 3.970074, 1.491712, 3.417025, -1.404021, -1.628911, -0.519287, -0.003906, 0.847168, 0.096842, 0.034338, -0.061844, 0.999796, 0.017084, -0.007020, -0.008144, 150.618372, -33.240325, 94.356359, , , 0.000000, , , 
06577, , 10.997260, 0.265739, -2.631889, -1.673101, 7.798899, -1.793091, 2.184819, -0.580727, -1.380312, -0.517334, 0.011230, 0.846680, 0.110065, 0.002183, -0.025974, 0.999912, 0.010924, -0.002904, -0.006901, 151.536149, -32.596284, 94.933002, , , 0.000000, , , 
06578, , 7.456079, -0.057089, 0.488048, -0.417716, 6.521579, -6.189349, 1.974196, 0.207983, -0.900717, -0.517578, 0.024414, 0.846436, 0.074562, -0.000954, 0.004795, 0.999941, 0.009871, 0.001040, -0.004503, 152.341760, -32.461497, 95.540156, , , 0.000000, , , 
06579, , 7.424422, -0.064131, -0.106609, -0.725725, 6.181034, -5.762326, 1.703138, 0.520954, -0.509963, -0.520020, 0.032959, 0.840088, 0.074239, -0.000820, -0.001266, 0.999957, 0.008516, 0.002605, -0.002550, 153.073358, -32.625213, 95.957465, , , 0.000000, , , 
06580, , 6.053600, 1.685739, -0.591943, 0.758036, 4.492070, -5.444090, 1.444866, 1.264307, -0.254013, -0.535889, 0.043701, 0.831299, 0.060519, 0.016825, -0.006180, 0.999953, 0.007224, 0.006321, -0.001270, 153.607295, -33.210157, 96.500042, , , 0.000000, , , 
06581, , 4.263467, 1.767004, -1.086386, 0.794469, 2.682180, -5.984630, 1.021404, 1.935174, -0.018023, -0.556152, 0.052490, 0.820557, 0.042529, 0.017723, -0.011185, 0.999940, 0.005107, 0.009676, -0.000090, 153.866513, -34.233358, 97.047403, , , 0.000000, , , 
06582, , 3.043914, 0.757798, -1.250050, -0.083678, 1.666326, -6.877023, 0.668106, 2.477408, 0.240612, -0.582764, 0.056641, 0.807861, 0.030272, 0.007657, -0.012851, 0.999917, 0.003340, 0.012387, 0.001203, 153.900415, -35.571481, 97.658763, , , 0.000000, , , 
06583, , 2.680487, -0.853764, -2.063402, -1.834112, 1.037587, -7.032378, 0.553311, 2.900655, 0.569890, -0.605225, 0.067383, 0.794922, 0.026526, -0.008404, -0.021043, 0.999887, 0.002766, 0.014503, 0.002849, 153.900153, -37.244000, 98.164332, , , 0.000000, , , 
06584, , 3.099437, -1.147024, -2.412467, -2.271786, 1.085778, -6.587686, 0.787453, 3.289602, 0.896661, -0.627686, 0.078125, 0.769287, 0.030642, -0.011236, -0.024675, 0.999847, 0.003937, 0.016447, 0.004483, 154.064637, -39.166096, 98.629344, , , 0.000000, , , 
06585, , 3.546345, -0.531800, -2.505813, -1.765188, 1.140477, -5.976088, 0.767838, 3.641185, 1.200188, -0.661377, 0.090820, 0.750244, 0.035030, -0.005009, -0.025718, 0.999809, 0.003839, 0.018205, 0.006001, 154.264503, -41.379180, 98.969887, , , 0.000000, , , 
06586, , 4.617415, -0.151191, -2.170999, -1.396883, 1.921813, -5.295172, 0.729067, 3.965886, 1.504504, -0.690674, 0.108154, 0.718018, 0.045741, -0.001085, -0.022624, 0.999768, 0.003645, 0.019828, 0.007522, 154.494123, -43.803771, 99.249175, , , 0.000000, , , 
06587, , 5.193966, -0.068288, -2.130979, -1.336706, 2.127993, -4.792527, 0.693140, 4.320110, 1.787528, -0.724365, 0.125244, 0.692383, 0.051466, -0.000145, -0.022426, 0.999721, 0.003465, 0.021599, 0.008937, 154.760609, -46.516427, 99.409159, , , 0.000000, , , 
06588, , 5.504052, 0.084114, -2.121772, -1.177014, 2.065940, -4.414305, 0.723175, 4.611039, 2.084742, -0.751465, 0.144775, 0.664551, 0.054519, 0.001491, -0.022474, 0.999673, 0.003615, 0.023053, 0.010423, 155.134965, -49.418616, 99.464280, , , 0.000000, , , 
06589, , 5.799485, 0.827530, -2.233694, -0.469564, 1.750155, -3.811437, 0.765991, 4.876118, 2.341318, -0.780762, 0.168457, 0.621826, 0.057325, 0.009038, -0.023706, 0.999627, 0.003829, 0.024378, 0.011705, 155.649678, -52.553928, 99.338350, , , 0.000000, , , 
06590, , 5.893193, 0.935302, -2.597427, -0.396864, 1.167446, -3.423702, 0.649757, 5.081826, 2.577560, -0.812256, 0.192383, 0.581299, 0.058120, 0.010193, -0.027426, 0.999589, 0.003248, 0.025406, 0.012886, 156.247052, -55.817769, 99.062072, , , 0.000000, , , 
06591, , 6.213721, 0.987431, -3.286559, -0.462497, 0.391958, -2.741312, 0.590656, 5.234337, 2.799516, -0.832764, 0.216064, 0.542725, 0.061102, 0.010835, -0.034443, 0.999555, 0.002953, 0.026168, 0.013996, 157.038530, -59.244245, 98.499385, , , 0.000000, , , 
06592, , 6.748764, 0.689556, -3.497356, -0.719152, 0.115195, -2.216380, 0.641660, 5.345859, 3.031853, -0.855713, 0.244385, 0.495605, 0.066405, 0.008024, -0.036734, 0.999523, 0.003208, 0.026725, 0.015157, 158.200744, -62.741105, 97.592372, , , 0.000000, , , 
06593, , 7.582337, -0.011045, -3.872217, -1.383875, -0.170584, -1.415202, 0.780955, 5.402674, 3.267550, -0.869629, 0.272705, 0.446533, 0.074727, 0.001273, -0.040748, 0.999494, 0.003904, 0.027009, 0.016335, 160.016711, -66.335081, 96.042132, , , 0.000000, , , 
06594, , 8.676437, -0.267380, -3.885932, -1.483867, -0.236789, -0.423208, 0.992418, 5.491011, 3.483958, -0.888184, 0.311768, 0.399414, 0.085681, -0.000974, -0.041230, 0.999459, 0.004961, 0.027450, 0.017417, 162.804217, -69.957288, 93.653787, , , 0.000000, , , 
06595, , 9.986370, -0.292932, -4.067449, -1.330728, -0.583008, 0.873863, 1.213560, 5.577107, 3.665074, -0.893311, 0.344482, 0.350098, 0.098706, -0.000855, -0.043447, 0.999425, 0.006067, 0.027880, 0.018322, 167.179611, -73.621600, 89.744543, , , 0.000000, , , 
06596, , 11.405168, -0.340152, -4.427470, -1.150204, -1.240028, 2.306495, 1.428304, 5.693617, 3.784858, -0.907227, 0.383789, 0.290039, 0.112763, -0.000928, -0.047510, 0.999390, 0.007140, 0.028462, 0.018920, 174.201163, -77.200214, 83.339387, , , 0.000000, , , 
06597, , 12.623732, -0.271500, -5.137253, -0.834039, -2.502578, 3.558365, 1.733307, 5.814873, 3.864914, -0.907959, 0.420898, 0.232422, 0.124688, 0.000171, -0.055020, 0.999353, 0.008665, 0.029068, 0.019320, -173.301730, -80.557927, 71.579281, , , 0.000000, , , 
06598, , 13.980342, -0.313853, -5.984673, -0.535516, -4.038227, 4.838777, 2.032264, 5.924384, 3.929494, -0.904541, 0.462402, 0.170166, 0.137967, 0.000221, -0.063961, 0.999317, 0.010159, 0.029615, 0.019643, -149.559792, -83.111174, 48.783346, , , 0.000000, , , 
06599, , 15.340286, -0.207775, -6.812845, 0.036721, -5.780553, 5.942727, 2.325659, 5.988137, 3.956746, -0.896240, 0.499512, 0.101807, 0.151263, 0.001757, -0.072674, 0.999289, 0.011626, 0.029934, 0.019779, -112.162241, -83.675340, 12.455297, , , 0.000000, , , 
06600, , 16.650720, 0.515844, -7.885031, 1.289809, -8.016463, 6.728112, 2.493285, 6.013043, 3.882597, -0.885742, 0.534668, 0.041992, 0.163884, 0.009381, -0.083705, 0.999282, 0.012463, 0.030058, 0.019408, -81.440289, -81.812607, -17.059178, , , 0.000000, , , 
06601, , 18.275157, 1.217242, -8.367875, 2.747978, -9.795827, 7.559298, 2.574441, 6.064773, 3.719421, -0.868652, 0.565430, -0.015625, 0.179825, 0.016658, -0.088967, 0.999285, 0.012869, 0.030317, 0.018593, -64.137473, -78.700790, -33.141550, , , 0.000000, , , 
06602, , 19.446029, 1.348591, -8.972514, 3.625579, -11.671857, 7.819403, 2.464299, 6.024908, 3.518481, -0.842529, 0.591797, -0.090088, 0.191354, 0.018023, -0.095318, 0.999316, 0.012319, 0.030118, 0.017588, -54.355955, -75.191050, -41.726951, , , 0.000000, , , 
06603, , 20.674965, 2.182751, -10.009907, 5.174175, -14.079954, 7.713902, 2.358330, 5.839354, 3.323287, -0.820557, 0.615967, -0.145508, 0.203302, 0.026450, -0.105775, 0.999366, 0.011789, 0.029191, 0.016613, -48.216164, -71.594809, -46.753612, , , 0.000000, , , 
06604, , 20.898095, 4.024449, -11.358677, 7.457795, -16.528014, 6.091482, 2.095611, 5.581046, 3.061614, -0.796631, 0.635986, -0.196777, 0.205051, 0.044631, -0.118894, 0.999439, 0.010476, 0.027900, 0.015305, -44.039659, -68.109911, -49.920590, , , 0.000000, , , 
06605, , 19.268141, 4.069438, -12.791381, 7.436056, -18.217930, 2.996961, 1.367681, 5.160231, 2.804341, -0.763428, 0.653809, -0.243652, 0.188698, 0.044255, -0.132523, 0.999545, 0.006837, 0.025797, 0.014020, -41.356755, -64.841360, -52.016193, , , 0.000000, , , 
06606, , 17.402648, 2.582597, -15.024487, 5.642212, -20.240395, -0.136916, 0.960452, 4.565940, 2.703237, -0.743896, 0.669189, -0.277588, 0.170162, 0.028877, -0.154026, 0.999637, 0.004802, 0.022827, 0.013515, -39.758682, -61.843496, -53.187204, , , 0.000000, , , 
06607, , 15.047143, 4.403224, -16.998611, 6.749350, -21.486031, -4.573261, 0.774208, 4.010534, 2.610477, -0.717529, 0.689209, -0.307617, 0.146428, 0.046626, -0.172772, 0.999706, 0.003871, 0.020051, 0.013051, -38.796838, -59.124039, -53.800373, , , 0.000000, , , 
06608, , 9.854230, 7.344087, -18.504001, 7.857746, -20.702907, -11.551001, -0.040009, 3.282950, 2.310446, -0.691162, 0.706787, -0.324951, 0.094631, 0.074512, -0.186630, 0.999799, -0.000200, 0.016414, 0.011551, -38.589223, -56.825250, -54.071377, , , 0.000000, , , 
06609, , 5.598797, 9.685026, -19.659694, 8.357045, -19.712218, -17.106844, -0.988163, 2.110115, 1.786027, -0.671387, 0.715576, -0.327148, 0.053044, 0.096358, -0.197644, 0.999892, -0.004941, 0.010550, 0.008930, -39.227217, -55.258477, -53.997261, , , 0.000000, , , 
06610, , 2.712418, 10.159598, -19.869411, 7.445675, -18.540074, -20.116978, -1.678759, 0.860265, 1.042844, -0.666992, 0.724365, -0.318848, 0.025742, 0.100059, -0.199651, 0.999942, -0.008394, 0.004301, 0.005214, -40.390698, -54.494266, -53.749885, , , 0.000000, , , 
06611, , 1.166575, 9.469727, -18.834689, 6.065148, -17.049494, -20.689101, -1.963397, -0.478853, 0.146349, -0.671875, 0.732910, -0.298096, 0.012050, 0.092851, -0.189236, 0.999949, -0.009817, -0.002394, 0.000732, -41.874606, -54.665778, -53.309107, , , 0.000000, , , 
06612, , 2.866595, 6.965306, -18.202769, 4.162163, -17.517598, -17.804022, -1.930492, -1.697204, -0.632406, -0.685303, 0.734863, -0.270508, 0.030429, 0.067799, -0.182435, 0.999912, -0.009652, -0.008486, -0.003162, -43.542963, -55.623145, -52.623085, , , 0.000000, , , 
06613, , 6.056946, 5.595830, -16.673063, 4.090355, -17.763879, -13.510263, -1.667098, -2.631989, -1.263895, -0.700684, 0.730469, -0.240967, 0.063107, 0.054177, -0.166368, 0.999859, -0.008335, -0.013159, -0.006319, -45.336480, -57.232652, -51.620722, , , 0.000000, , , 
06614, , 16.126495, -4.436279, 2.669282, 1.837602, -3.949122, 6.553672, -4.234904, -2.975823, -1.271452, -0.709717, 0.728027, -0.181641, 0.160551, -0.044773, 0.030031, 0.999645, -0.021172, -0.014877, -0.006357, -48.971529, -58.923420, -50.196296, , , 0.000000, , , 
06615, , 19.237306, -21.001669, 11.716603, -10.071209, 5.411776, 18.779547, -4.502214, -2.350550, -0.634596, -0.723145, 0.729980, -0.143555, 0.190280, -0.207881, 0.124107, 0.999673, -0.022509, -0.011751, -0.003173, -52.979540, -60.086316, -48.551022, , , 0.000000, , , 
06616, , 14.173148, -16.454757, 7.833132, -8.394683, 4.002262, 11.317805, 0.668595, -1.758365, -0.674378, -0.727295, 0.716797, -0.151855, 0.140482, -0.165286, 0.079018, 0.999950, 0.003343, -0.008792, -0.003372, -53.613907, -60.995687, -47.381671, , , 0.000000, , , 
06617, , 12.748037, 2.179990, 1.369081, 6.457638, -3.346605, 0.968052, 4.074280, -2.132701, -1.087544, -0.742676, 0.710205, -0.162354, 0.127437, 0.020804, 0.015481, 0.999721, 0.020370, -0.010663, -0.005437, -52.431435, -62.250691, -46.066455, , , 0.000000, , , 
06618, , 14.552236, 6.896787, 0.139110, 11.072466, -5.084514, 0.717000, 1.679822, -2.684573, -1.535741, -0.751221, 0.697021, -0.153564, 0.146005, 0.067822, 0.003922, 0.999845, 0.008399, -0.013422, -0.007678, -52.819544, -63.881172, -44.550786, , , 0.000000, , , 
06619, , 18.117365, 1.405090, -3.178853, 6.402366, -8.450968, 5.282978, 2.008929, -2.833172, -1.636355, -0.770996, 0.681641, -0.142578, 0.181707, 0.012867, -0.029084, 0.999816, 0.010044, -0.014165, -0.008181, -53.269122, -65.631030, -42.772077, , , 0.000000, , , 
06620, , 17.560319, 2.388198, -7.963087, 6.440009, -12.445434, 3.643965, 1.930331, -2.999691, -1.587922, -0.784180, 0.670654, -0.138184, 0.176955, 0.023231, -0.076757, 0.999809, 0.009651, -0.014998, -0.007939, -54.105102, -67.379700, -40.653875, , , 0.000000, , , 
06621, , 17.528444, 6.501592, -4.874340, 10.705734, -9.083897, 3.457762, 1.934427, -2.941900, -1.499056, -0.792725, 0.655273, -0.116699, 0.176453, 0.064147, -0.045530, 0.999817, 0.009672, -0.014709, -0.007495, -55.266140, -69.084865, -38.202494, , , 0.000000, , , 
06622, , 12.252775, -2.826303, -6.346877, 0.137688, -8.661815, 1.293261, 0.448887, -2.923125, -1.305495, -0.801270, 0.642090, -0.103760, 0.123251, -0.028926, -0.061735, 0.999869, 0.002244, -0.014615, -0.006527, -57.684168, -70.631508, -35.352472, , , 0.000000, , , 
06623, , 10.258073, -4.255647, -6.001080, -1.753743, -7.640392, 0.081486, 1.673314, -2.904655, -1.057531, -0.814453, 0.631104, -0.095215, 0.103216, -0.042605, -0.058871, 0.999846, 0.008366, -0.014523, -0.005287, -60.125387, -72.043675, -31.764134, , , 0.000000, , , 
06624, , 9.847858, -1.203658, -5.079131, 1.171830, -6.490252, -0.828017, 1.973537, -2.623040, -0.985244, -0.820801, 0.622559, -0.088623, 0.099075, -0.012030, -0.049613, 0.999853, 0.009867, -0.013115, -0.004926, -62.335697, -73.260173, -28.263222, , , 0.000000, , , 
06625, , 9.393632, -1.116645, -4.908787, 1.187199, -6.050191, -1.119887, 1.932000, -2.384230, -0.905963, -0.829590, 0.617920, -0.082275, 0.094463, -0.011126, -0.048071, 0.999872, 0.009660, -0.011921, -0.004530, -64.795931, -74.363871, -24.546261, , , 0.000000, , , 
06626, , 9.679358, 2.872306, -4.336675, 5.162794, -5.199118, -1.623959, 2.072862, -1.991599, -0.826425, -0.831787, 0.611328, -0.073730, 0.097336, 0.028762, -0.042101, 0.999888, 0.010364, -0.009958, -0.004132, -66.717144, -75.262534, -21.324149, , , 0.000000, , , 
06627, , 10.499433, 6.063630, -2.599890, 8.419935, -3.160258, -1.275874, 0.854537, -1.765387, -0.612973, -0.836182, 0.606934, -0.067139, 0.105402, 0.060421, -0.024811, 0.999947, 0.004273, -0.008827, -0.003065, -69.585189, -75.992592, -17.864134, , , 0.000000, , , 
06628, , 11.633689, 4.762043, -2.321911, 7.367956, -2.848917, 0.237457, -0.439702, -1.522225, -0.391193, -0.838379, 0.604736, -0.043945, 0.116602, 0.047343, -0.022437, 0.999967, -0.002198, -0.007611, -0.001956, -72.905710, -76.483709, -14.704075, , , 0.000000, , , 
06629, , 12.427554, 2.770235, -1.316429, 5.529341, -1.837238, 1.584704, -1.365482, -1.391134, -0.181516, -0.836182, 0.604736, -0.029053, 0.124389, 0.027503, -0.012488, 0.999952, -0.006827, -0.006956, -0.000908, -77.061313, -76.815299, -11.248649, , , 0.000000, , , 
06630, , 12.459602, 0.183828, -1.195203, 2.980474, -1.663052, 2.231101, -1.743872, -1.295709, -0.072245, -0.842773, 0.604736, -0.008057, 0.124671, 0.001694, -0.011160, 0.999941, -0.008719, -0.006478, -0.000361, -81.150534, -76.994954, -8.075291, , , 0.000000, , , 
06631, , 11.654728, -2.697375, -1.514754, -0.033006, -1.825167, 2.106534, -1.514090, -1.207006, -0.043276, -0.842773, 0.604492, 0.010986, 0.116629, -0.027109, -0.014239, 0.999953, -0.007570, -0.006035, -0.000216, -85.248803, -77.120624, -4.767065, , , 0.000000, , , 
06632, , 10.294378, -4.445408, -1.503059, -2.057346, -1.628388, 1.192262, -0.728738, -1.108324, -0.053284, -0.842773, 0.602295, 0.017334, 0.103013, -0.044535, -0.014298, 0.999978, -0.003644, -0.005542, -0.000266, -88.428180, -77.185139, -1.933469, , , 0.000000, , , 
06633, , 9.160431, -4.052149, -0.680892, -1.930052, -0.668973, 0.017043, -0.009036, -1.057597, -0.072122, -0.840576, 0.602295, 0.030029, 0.091624, -0.040555, -0.006323, 0.999986, -0.000045, -0.005288, -0.000361, -91.359121, -77.241219, 1.069683, , , 0.000000, , , 
06634, , 9.175907, -3.832841, -1.387176, -1.715920, -1.291085, -0.004505, 0.606236, -1.060944, -0.070112, -0.842773, 0.602295, 0.034180, 0.091818, -0.038319, -0.013501, 0.999981, 0.003031, -0.005305, -0.000351, -93.691678, -77.253830, 3.818233, , , 0.000000, , , 
06635, , 9.638434, -2.245926, -1.661565, -0.059220, -1.471174, 0.113842, 0.875222, -1.027039, -0.069872, -0.840576, 0.602295, 0.034180, 0.096460, -0.022421, -0.016219, 0.999977, 0.004376, -0.005135, -0.000349, -96.054068, -77.250528, 6.760109, , , 0.000000, , , 
06636, , 10.491393, -0.533136, -1.768065, 1.808118, -1.453885, 0.584227, 0.705148, -0.908306, -0.084494, -0.838379, 0.600098, 0.038574, 0.104991, -0.005314, -0.017223, 0.999983, 0.003526, -0.004542, -0.000422, -97.946317, -77.234619, 9.115393, , , 0.000000, , , 
06637, , 10.683057, 0.674239, -1.365176, 3.018643, -0.925720, 0.506046, 0.294967, -0.764444, -0.048310, -0.847412, 0.600098, 0.042725, 0.106883, 0.006736, -0.013233, 0.999992, 0.001475, -0.003822, -0.000242, -99.949826, -77.196061, 11.356198, , , 0.000000, , , 
06638, , 10.550471, 0.395279, -1.262292, 2.715509, -0.758185, 0.439768, -0.374824, -0.664188, 0.069124, -0.838623, 0.604492, 0.051270, 0.105545, 0.003966, -0.012280, 0.999993, -0.001874, -0.003321, 0.000346, -101.758032, -77.085137, 12.991559, , , 0.000000, , , 
06639, , 10.023011, -0.028539, -1.092104, 2.185233, -0.546178, 0.014844, -0.914364, -0.605403, 0.167971, -0.836182, 0.600098, 0.065918, 0.100263, -0.000250, -0.010616, 0.999985, -0.004572, -0.003027, 0.000840, -103.899491, -76.913905, 14.666040, , , 0.000000, , , 
06640, , 9.741780, -1.512673, -1.347725, 0.685450, -0.758331, 0.084857, -1.243475, -0.608100, 0.183146, -0.838623, 0.604492, 0.074463, 0.097472, -0.015120, -0.013087, 0.999976, -0.006217, -0.003040, 0.000916, -105.923546, -76.722657, 16.014073, , , 0.000000, , , 
06641, , 9.662741, -3.383198, -1.483553, -1.156524, -0.792864, 0.436634, -1.020849, -0.611813, 0.118701, -0.836182, 0.600098, 0.084961, 0.096692, -0.033849, -0.014367, 0.999982, -0.005104, -0.003059, 0.000594, -108.078656, -76.552112, 17.640049, , , 0.000000, , , 
06642, , 9.119665, -4.313985, -1.439053, -2.187211, -0.688407, 0.116632, -0.402769, -0.617221, -0.009833, -0.836426, 0.604492, 0.091309, 0.091238, -0.043173, -0.014022, 0.999993, -0.002014, -0.003086, -0.000049, -109.700347, -76.442930, 19.071471, , , 0.000000, , , 
06643, , 8.941335, -3.942973, -1.365499, -1.874887, -0.563046, -0.141772, 0.107691, -0.674474, -0.160260, -0.838379, 0.600098, 0.095703, 0.089427, -0.039494, -0.013375, 0.999994, 0.000538, -0.003372, -0.000801, -111.496229, -76.387647, 21.001954, , , 0.000000, , , 
06644, , 8.596756, -3.114572, -1.164718, -1.159762, -0.352359, -0.675300, 0.246396, -0.712610, -0.298644, -0.833984, 0.600098, 0.095703, 0.085962, -0.031260, -0.011379, 0.999992, 0.001232, -0.003563, -0.001493, -113.173719, -76.390882, 22.874151, , , 0.000000, , , 
06645, , 8.109384, -2.390225, -0.892093, -0.589503, -0.069116, -1.332219, -0.024646, -0.827619, -0.410005, -0.840576, 0.595703, 0.104248, 0.081081, -0.024070, -0.008582, 0.999989, -0.000123, -0.004138, -0.002050, -115.582731, -76.400275, 25.364045, , , 0.000000, , , 
06646, , 7.775375, -2.303059, -0.723997, -0.613898, 0.139845, -1.695575, -0.464253, -0.975941, -0.482659, -0.838379, 0.591309, 0.114746, 0.077732, -0.023234, -0.006807, 0.999982, -0.002321, -0.004880, -0.002413, -118.417212, -76.393110, 28.007652, , , 0.000000, , , 
06647, , 7.388352, -2.122648, -0.535218, -0.564685, 0.382573, -2.137174, -0.922005, -1.153500, -0.564485, -0.844971, 0.584717, 0.138184, 0.073852, -0.021458, -0.004828, 0.999969, -0.004610, -0.005767, -0.002822, -122.167463, -76.325699, 31.351514, , , 0.000000, , , 
06648, , 7.861647, -3.071305, -0.275479, -1.449977, 0.848899, -1.536872, -1.357167, -1.352024, -0.663679, -0.838135, 0.575928, 0.157471, 0.078529, -0.030989, -0.002014, 0.999949, -0.006786, -0.006760, -0.003318, -126.431525, -76.203790, 34.941581, , , 0.000000, , , 
06649, , 8.697726, -4.150421, -0.646028, -2.415908, 0.814822, -0.496590, -1.454606, -1.522918, -0.727444, -0.844482, 0.564941, 0.176514, 0.086870, -0.041863, -0.005495, 0.999938, -0.007273, -0.007614, -0.003637, -131.266115, -75.957768, 39.080210, , , 0.000000, , , 
06650, , 10.046628, -4.040123, -1.992496, -2.165748, -0.109936, 0.981764, -1.236660, -1.629976, -0.743310, -0.842285, 0.560547, 0.187256, 0.100471, -0.040893, -0.018854, 0.999941, -0.006183, -0.008150, -0.003716, -135.799911, -75.623902, 43.027110, , , 0.000000, , , 
06651, , 10.807108, -0.952524, -3.588997, 0.861342, -1.530284, 1.478637, -0.834834, -1.625688, -0.770893, -0.844238, 0.549561, 0.214844, 0.108320, -0.010090, -0.034969, 0.999951, -0.004174, -0.008128, -0.003854, -140.096029, -75.203200, 47.000675, , , 0.000000, , , 
06652, , 11.904656, 1.475898, -2.424211, 3.387138, -0.162605, 1.946268, -0.790450, -1.525246, -0.817069, -0.841797, 0.541016, 0.223633, 0.119286, 0.014178, -0.023390, 0.999955, -0.003952, -0.007626, -0.004085, -143.927795, -74.803447, 50.499678, , , 0.000000, , , 
06653, , 10.591154, 0.333841, -1.672219, 1.977444, 0.574349, 0.715244, -1.036918, -1.450713, -0.803482, -0.846191, 0.536377, 0.249023, 0.106041, 0.002828, -0.015969, 0.999952, -0.005185, -0.007253, -0.004017, -147.732629, -74.344653, 53.859773, , , 0.000000, , , 
06654, , 9.734567, -1.148873, -1.783967, 0.284564, 0.573892, 0.129670, -1.372533, -1.626967, -0.800359, -0.848145, 0.521240, 0.266357, 0.097439, -0.011997, -0.016966, 0.999935, -0.006863, -0.008135, -0.004002, -151.548393, -73.773070, 57.011296, , , 0.000000, , , 
06655, , 9.531998, -0.778120, -2.005509, 0.517093, 0.468416, -0.066085, -1.261988, -1.716388, -0.812109, -0.845703, 0.512451, 0.285400, 0.095454, -0.008292, -0.019185, 0.999935, -0.006310, -0.008582, -0.004060, -155.260622, -73.067987, 60.158658, , , 0.000000, , , 
06656, , 9.425922, 1.106939, -1.804112, 2.282160, 0.616026, -0.445882, -1.344147, -1.789786, -1.032746, -0.843262, 0.495117, 0.311035, 0.094471, 0.010464, -0.017268, 0.999924, -0.006721, -0.008949, -0.005164, -159.057294, -72.353686, 63.329410, , , 0.000000, , , 
06657, , 9.848222, -1.545287, -1.109612, -0.332652, 1.903886, 0.029359, -1.429462, -1.978969, -1.146432, -0.836182, 0.481934, 0.330322, 0.098494, -0.016092, -0.010008, 0.999909, -0.007147, -0.009895, -0.005732, -163.003356, -71.460609, 66.651638, , , 0.000000, , , 
06658, , 10.605869, -2.046903, -2.140427, -0.943953, 1.453257, 1.061381, -1.390983, -2.103652, -1.186767, -0.838135, 0.470947, 0.351807, 0.106150, -0.021242, -0.020142, 0.999903, -0.006955, -0.010518, -0.005934, -166.614957, -70.476710, 69.629985, , , 0.000000, , , 
06659, , 11.794059, -1.536926, -2.673904, -0.497469, 1.545792, 2.268918, -1.239223, -2.223293, -1.293459, -0.835693, 0.458008, 0.377441, 0.118124, -0.016293, -0.025328, 0.999898, -0.006196, -0.011116, -0.006467, -170.073058, -69.346468, 72.594464, , , 0.000000, , , 
06660, , 12.534946, -0.104640, -2.871976, 0.816693, 1.714685, 2.906061, -1.096279, -2.221159, -1.398105, -0.835449, 0.440430, 0.400879, 0.125646, -0.002076, -0.027316, 0.999899, -0.005481, -0.011105, -0.006990, -173.215460, -68.204948, 75.292712, , , 0.000000, , , 
06661, , 12.099132, 0.922609, -3.071891, 1.590350, 1.541088, 2.506480, -1.231057, -2.280602, -1.551492, -0.828125, 0.416504, 0.424561, 0.121397, 0.008102, -0.029388, 0.999886, -0.006155, -0.011403, -0.007757, -176.387826, -66.952993, 78.002458, , , 0.000000, , , 
06662, , 12.807478, -0.100623, -2.852907, 0.468588, 2.486676, 3.062261, -1.310184, -2.311308, -1.725461, -0.830078, 0.401123, 0.446045, 0.128377, -0.002293, -0.027034, 0.999875, -0.006551, -0.011556, -0.008627, -179.496488, -65.666293, 80.578461, , , 0.000000, , , 
06663, , 12.796661, -0.851880, -2.911214, -0.503301, 2.890566, 3.006533, -1.284855, -2.320761, -1.837994, -0.818604, 0.377441, 0.467773, 0.128206, -0.009877, -0.027565, 0.999870, -0.006424, -0.011603, -0.009190, 177.522603, -64.289618, 83.097661, , , 0.000000, , , 
06664, , 13.233715, -0.628969, -3.285370, -0.546812, 3.063363, 3.477183, -1.353090, -2.404873, -1.906565, -0.818115, 0.353271, 0.493652, 0.132650, -0.007768, -0.031211, 0.999859, -0.006765, -0.012024, -0.009532, 174.743625, -62.842497, 85.336411, , , 0.000000, , , 
06665, , 13.726742, 0.382294, -2.314444, 0.381764, 4.349185, 3.410310, -1.660373, -2.497689, -1.927183, -0.808594, 0.331543, 0.519287, 0.137570, 0.002315, -0.021451, 0.999841, -0.008301, -0.012488, -0.009635, 172.007271, -61.268407, 87.400582, , , 0.000000, , , 
06666, , 14.627136, 0.934581, -1.701845, 0.810425, 5.595932, 3.815678, -2.136355, -2.547799, -1.944665, -0.799316, 0.305664, 0.545166, 0.146554, 0.007753, -0.015241, 0.999815, -0.010681, -0.012738, -0.009723, 169.263911, -59.648198, 89.148072, , , 0.000000, , , 
06667, , 16.656955, 0.452736, -0.849649, 0.262963, 7.843045, 4.910525, -2.568647, -2.623252, -1.988357, -0.787354, 0.268555, 0.575439, 0.166696, 0.002780, -0.006354, 0.999782, -0.012842, -0.013115, -0.009941, 166.462075, -57.916972, 90.746138, , , 0.000000, , , 
06668, , 18.871310, -1.094304, 0.607018, -1.181164, 10.970326, 5.546801, -2.707190, -2.657572, -2.064541, -0.780273, 0.246826, 0.603516, 0.188483, -0.012783, 0.008741, 0.999767, -0.013535, -0.013287, -0.010322, 163.753088, -56.142922, 92.127492, , , 0.000000, , , 
06669, , 20.447391, -1.345643, 2.309772, -1.255052, 13.770194, 5.484563, -2.784664, -2.779593, -2.093652, -0.766113, 0.205566, 0.623291, 0.203971, -0.015244, 0.026139, 0.999752, -0.013922, -0.013897, -0.010467, 161.192273, -54.242246, 93.337799, , , 0.000000, , , 
06670, , 22.200980, -2.112911, 4.630855, -1.559775, 17.279482, 4.942869, -3.090438, -2.852037, -2.175342, -0.745117, 0.166504, 0.655762, 0.221074, -0.022786, 0.049809, 0.999720, -0.015451, -0.014259, -0.010876, 158.606827, -52.280877, 94.355777, , , 0.000000, , , 
06671, , 22.636904, -5.605405, 3.874314, -5.230132, 18.267288, 4.249152, -3.555905, -2.894552, -2.236970, -0.730957, 0.131836, 0.681641, 0.225127, -0.057837, 0.043025, 0.999675, -0.017778, -0.014471, -0.011184, 155.876592, -50.245866, 95.262045, , , 0.000000, , , 
06672, , 20.617661, -6.713286, 1.268400, -7.122922, 15.905932, 3.146713, -3.396661, -3.119067, -2.435245, -0.712402, 0.086182, 0.699463, 0.205098, -0.069370, 0.017054, 0.999660, -0.016981, -0.015594, -0.012175, 153.359465, -48.034754, 96.018313, , , 0.000000, , , 
06673, , 22.400422, -6.810796, -0.806850, -8.274038, 16.295341, 4.840258, -3.241091, -3.239395, -2.712882, -0.689209, 0.047119, 0.725586, 0.223132, -0.071218, -0.003312, 0.999646, -0.016204, -0.016195, -0.013563, 150.951390, -45.669701, 96.781292, , , 0.000000, , , 
06674, , 22.207052, -11.946481, -2.692674, -13.845187, 16.872599, 3.094096, -4.022181, -3.206305, -2.643462, -0.659180, -0.000488, 0.745605, 0.220829, -0.122850, -0.020931, 0.999582, -0.020108, -0.016029, -0.013215, 148.276762, -43.320474, 97.310715, , , 0.000000, , , 
06675, , 21.469468, -14.526094, -5.843474, -17.582519, 15.721811, 2.419182, -2.855096, -3.288351, -2.644834, -0.631836, -0.032959, 0.765381, 0.213641, -0.148872, -0.052808, 0.999676, -0.014274, -0.016440, -0.013223, 146.404302, -40.924906, 97.658668, , , 0.000000, , , 
06676, , 19.926658, -10.852755, -4.742382, -13.843542, 14.884467, 1.327122, -0.494186, -2.677598, -2.722299, -0.615967, -0.050049, 0.782471, 0.198372, -0.111344, -0.044491, 0.999815, -0.002471, -0.013387, -0.013611, 145.756237, -38.782889, 98.230092, , , 0.000000, , , 
06677, , 17.108695, -7.405769, -3.410679, -10.056574, 13.021014, -0.406686, 0.299896, -2.655329, -2.531320, -0.591309, -0.058594, 0.799561, 0.170566, -0.076170, -0.031953, 0.999831, 0.001499, -0.013276, -0.012656, 145.671052, -36.725187, 98.639514, , , 0.000000, , , 
06678, , 16.172428, -4.525442, -5.587249, -8.623262, 10.685639, 1.353630, 1.562119, -2.302559, -2.279326, -0.571289, -0.060791, 0.814453, 0.161829, -0.046670, -0.054371, 0.999838, 0.007810, -0.011512, -0.011396, 146.318363, -34.902644, 99.065267, , , 0.000000, , , 
06679, , 11.576286, 0.670526, -9.839211, -5.489878, 3.893664, 3.824162, 3.044647, -1.701070, -2.010220, -0.562744, -0.043213, 0.816162, 0.116663, 0.007022, -0.097297, 0.999797, 0.015222, -0.008505, -0.010050, 147.773058, -33.480914, 99.558596, , , 0.000000, , , 
06680, , 10.939240, 1.225970, -3.824512, -2.167714, 6.803730, -0.603846, 1.431002, -1.460719, -1.626265, -0.545166, -0.041016, 0.824463, 0.109764, 0.011638, -0.037360, 0.999915, 0.007155, -0.007303, -0.008131, 148.368993, -32.279353, 99.973684, , , 0.000000, , , 
06681, , 11.020948, -2.834772, -1.528463, -4.831522, 8.721779, -4.118890, 1.187641, -0.545661, -1.137736, -0.542969, -0.030029, 0.822266, 0.110088, -0.028884, -0.015155, 0.999962, 0.005938, -0.002728, -0.005689, 148.809201, -31.699677, 100.400576, , , 0.000000, , , 
06682, , 8.058837, -0.781689, 0.254856, -1.853691, 6.965027, -6.115017, 1.527828, 0.079895, -0.658071, -0.543213, -0.021484, 0.830566, 0.080563, -0.008101, 0.002455, 0.999965, 0.007639, 0.000399, -0.003290, 149.471921, -31.547145, 100.808720, , , 0.000000, , , 
06683, , 7.372665, 0.013237, -0.865028, -1.534271, 5.692543, -5.302093, 1.290696, 0.512415, -0.358027, -0.550049, -0.014893, 0.822021, 0.073704, 0.000057, -0.008839, 0.999974, 0.006453, 0.002562, -0.001790, 150.016580, -31.728871, 101.147551, , , 0.000000, , , 
06684, , 5.899686, 0.490123, -1.325642, -1.067669, 4.134361, -5.503323, 1.315326, 1.175915, -0.086935, -0.559082, -0.008545, 0.817627, 0.058920, 0.004964, -0.013570, 0.999961, 0.006577, 0.005879, -0.000435, 150.535442, -32.290893, 101.592948, , , 0.000000, , , 
06685, , 4.378930, 0.384360, -1.218184, -0.868391, 2.886999, -6.389629, 1.169342, 1.790335, 0.174423, -0.577393, 0.010986, 0.804443, 0.043675, 0.003954, -0.012550, 0.999942, 0.005847, 0.008952, 0.000872, 150.943219, -33.269276, 102.039460, , , 0.000000, , , 
06686, , 3.206155, -1.130742, -1.521159, -2.157684, 1.805577, -7.372302, 0.988830, 2.269672, 0.516905, -0.597412, 0.019531, 0.791748, 0.031915, -0.011148, -0.015630, 0.999920, 0.004944, 0.011348, 0.002584, 151.262717, -34.552574, 102.484641, , , 0.000000, , , 
06687, , 3.094591, -1.672252, -1.659914, -2.674363, 1.593851, -7.481490, 1.212379, 2.718419, 0.887083, -0.620117, 0.032471, 0.774414, 0.030789, -0.016483, -0.017119, 0.999879, 0.006062, 0.013592, 0.004435, 151.751187, -36.200500, 102.801930, , , 0.000000, , , 
06688, , 3.627161, -0.592467, -1.578709, -1.727975, 1.876418, -6.731934, 1.360766, 3.150314, 1.189904, -0.644775, 0.047607, 0.755127, 0.036051, -0.005600, -0.016395, 0.999835, 0.006803, 0.015751, 0.005949, 152.347178, -38.116207, 103.108205, , , 0.000000, , , 
06689, , 4.222478, 0.062215, -1.623039, -1.206083, 2.119328, -6.002376, 1.356682, 3.608720, 1.449716, -0.669678, 0.071289, 0.733643, 0.041916, 0.001040, -0.016982, 0.999788, 0.006783, 0.018042, 0.007248, 152.955680, -40.372239, 103.335061, , , 0.000000, , , 
06690, , 5.024837, 0.375633, -1.707318, -1.033004, 2.457646, -5.209084, 1.337915, 4.056609, 1.693480, -0.701416, 0.094971, 0.701416, 0.049854, 0.004298, -0.018060, 0.999736, 0.006689, 0.020281, 0.008467, 153.564033, -42.886277, 103.575246, , , 0.000000, , , 
06691, , 5.332915, 0.227577, -1.684107, -1.155437, 2.487847, -4.934447, 1.191760, 4.424394, 1.958245, -0.733154, 0.120850, 0.669189, 0.052913, 0.002900, -0.017999, 0.999690, 0.005958, 0.022120, 0.009790, 154.144176, -45.695544, 103.680108, , , 0.000000, , , 
06692, , 5.741513, 0.391622, -1.686463, -0.993232, 2.496931, -4.452375, 1.144043, 4.725776, 2.223913, -0.762207, 0.138184, 0.633057, 0.056947, 0.004653, -0.018189, 0.999643, 0.005720, 0.023626, 0.011118, 154.781855, -48.689811, 103.706257, , , 0.000000, , , 
06693, , 6.062929, 0.864833, -1.944198, -0.557252, 2.162775, -3.788728, 1.051971, 4.985874, 2.466288, -0.793945, 0.162109, 0.592529, 0.060007, 0.009498, -0.020895, 0.999599, 0.005259, 0.024926, 0.012330, 155.486527, -51.917331, 103.531218, , , 0.000000, , , 
06694, , 6.260171, 1.158861, -2.033228, -0.205652, 1.843407, -3.392908, 0.984220, 5.200997, 2.672427, -0.818848, 0.187988, 0.551758, 0.061883, 0.012524, -0.021888, 0.999561, 0.004920, 0.026001, 0.013360, 156.296248, -55.264675, 103.227628, , , 0.000000, , , 
06695, , 6.822165, 0.826334, -2.228298, -0.500586, 1.649084, -2.798155, 0.897444, 5.366387, 2.881693, -0.839355, 0.216309, 0.506836, 0.067462, 0.009344, -0.024060, 0.999526, 0.004487, 0.026828, 0.014406, 157.287137, -58.784129, 102.615986, , , 0.000000, , , 
06696, , 7.104350, 0.535323, -2.622620, -0.731417, 1.066141, -2.333035, 0.872449, 5.526918, 3.107511, -0.866943, 0.253174, 0.459717, 0.070187, 0.006568, -0.028147, 0.999488, 0.004361, 0.027630, 0.015535, 158.606527, -62.389689, 101.677231, , , 0.000000, , , 
06697, , 7.943159, 0.637782, -3.099581, -0.598689, 0.525727, -1.301140, 0.895411, 5.648211, 3.334711, -0.878662, 0.281494, 0.408447, 0.078392, 0.007836, -0.033187, 0.999452, 0.004476, 0.028236, 0.016671, 160.498857, -66.132803, 100.101958, , , 0.000000, , , 
06698, , 8.879560, 0.296054, -3.782622, -0.875361, -0.235331, -0.201000, 0.883728, 5.772807, 3.576191, -0.892578, 0.313965, 0.363281, 0.087581, 0.004709, -0.040348, 0.999414, 0.004418, 0.028858, 0.017877, 163.286378, -69.916226, 97.644904, , , 0.000000, , , 
06699, , 10.156403, 0.058026, -4.446639, -0.971179, -1.045049, 1.180130, 1.020761, 5.890358, 3.806554, -0.904297, 0.348877, 0.301270, 0.100158, 0.002733, -0.047420, 0.999372, 0.005103, 0.029446, 0.019029, 167.768535, -73.772729, 93.499326, , , 0.000000, , , 
06700, , 11.721598, -0.386746, -4.659527, -1.092709, -1.511176, 2.665608, 1.174650, 6.029141, 4.024412, -0.907471, 0.392578, 0.247803, 0.115783, -0.001240, -0.050113, 0.999326, 0.005872, 0.030139, 0.020118, 175.393182, -77.536769, 86.329891, , , 0.000000, , , 
06701, , 13.279856, -0.711385, -4.907390, -0.967662, -2.262661, 4.144038, 1.421322, 6.185284, 4.220713, -0.903809, 0.431885, 0.187744, 0.131302, -0.003964, -0.053186, 0.999274, 0.007105, 0.030919, 0.021098, -170.007908, -81.025386, 72.265176, , , 0.000000, , , 
06702, , 15.101375, -0.611999, -5.473431, -0.304803, -3.577718, 5.851235, 1.636473, 6.325795, 4.377667, -0.895752, 0.471191, 0.119385, 0.149261, -0.002366, -0.059504, 0.999227, 0.008180, 0.031621, 0.021883, -141.189352, -83.360925, 44.140931, , , 0.000000, , , 
06703, , 16.838160, -1.122977, -6.883419, -0.169691, -5.931578, 7.414377, 2.041823, 6.415836, 4.525992, -0.885498, 0.519287, 0.054932, 0.166243, -0.006711, -0.074275, 0.999177, 0.010206, 0.032070, 0.022624, -101.316453, -83.036871, 5.142760, , , 0.000000, , , 
06704, , 19.174550, 0.052622, -7.893318, 1.965506, -8.309231, 9.076937, 2.563674, 6.452375, 4.574668, -0.859375, 0.550049, -0.011230, 0.188973, 0.005935, -0.085008, 0.999136, 0.012815, 0.032253, 0.022867, -75.060900, -80.233325, -19.892943, , , 0.000000, , , 
06705, , 21.786203, 2.485859, -9.795143, 5.513884, -11.908573, 10.292538, 2.667865, 6.534279, 4.433745, -0.837891, 0.591797, -0.083740, 0.213874, 0.030996, -0.104598, 0.999132, 0.013335, 0.032662, 0.022162, -61.153830, -76.434499, -32.558943, , , 0.000000, , , 
06706, , 22.523484, 4.007775, -12.256290, 7.874037, -15.820343, 9.186000, 2.478764, 6.503960, 3.993893, -0.811768, 0.616211, -0.139160, 0.220223, 0.046084, -0.129234, 0.999195, 0.012390, 0.032511, 0.019964, -52.951426, -72.478558, -39.591931, , , 0.000000, , , 
06707, , 22.625502, 5.222617, -15.559824, 9.665580, -20.213411, 6.889255, 2.334079, 5.950735, 3.469698, -0.778809, 0.634033, -0.196777, 0.220534, 0.057948, -0.161564, 0.999339, 0.011668, 0.029747, 0.017345, -47.731087, -68.756254, -43.732261, , , 0.000000, , , 
06708, , 21.304604, 4.343419, -17.793173, 9.017260, -22.876386, 3.768059, 1.948657, 5.355276, 3.001023, -0.748047, 0.654053, -0.247803, 0.207488, 0.048343, -0.183083, 0.999482, 0.009742, 0.026772, 0.015003, -44.219347, -65.384731, -46.330279, , , 0.000000, , , 
06709, , 18.180061, 1.784720, -19.618361, 6.097829, -24.316535, -0.330255, 1.758254, 4.564625, 2.716398, -0.723633, 0.667236, -0.290283, 0.176983, 0.022021, -0.200079, 0.999609, 0.008790, 0.022820, 0.013580, -41.893883, -62.419073, -47.811167, , , 0.000000, , , 
06710, , 14.481026, 4.631568, -21.314359, 8.018969, -24.682177, -6.378496, 2.056691, 3.854249, 2.560136, -0.699463, 0.678467, -0.324463, 0.140047, 0.050336, -0.215369, 0.999680, 0.010282, 0.019269, 0.012799, -40.094013, -59.788001, -48.519392, , , 0.000000, , , 
06711, , 9.321622, 10.519254, -22.241742, 12.095753, -22.943643, -14.220797, 1.286504, 3.108153, 2.199961, -0.675049, 0.687500, -0.354248, 0.088577, 0.107618, -0.223131, 0.999798, 0.006432, 0.015540, 0.010999, -39.110947, -57.639567, -48.805418, , , 0.000000, , , 
06712, , 4.376160, 13.970879, -22.839858, 13.518885, -20.885639, -20.628734, -0.116283, 1.955954, 1.590288, -0.666504, 0.696289, -0.360596, 0.040413, 0.139906, -0.228886, 0.999920, -0.000581, 0.009780, 0.007951, -39.174253, -56.193180, -48.808124, , , 0.000000, , , 
06713, , 0.675792, 13.191628, -22.715663, 11.154884, -19.290175, -23.738150, -1.501461, 0.454841, 0.773345, -0.655518, 0.709229, -0.346191, 0.005734, 0.130229, -0.228152, 0.999962, -0.007507, 0.002274, 0.003867, -40.324095, -55.746033, -48.442085, , , 0.000000, , , 
06714, , -0.127652, 11.493906, -21.921769, 8.991758, -18.651358, -23.375221, -1.836586, -1.087262, -0.193921, -0.666748, 0.707031, -0.320801, 0.000029, 0.112920, -0.220263, 0.999943, -0.009183, -0.005436, -0.000970, -41.857330, -56.286609, -47.860797, , , 0.000000, , , 
06715, , 2.942137, 9.710628, -20.981616, 8.332630, -19.585706, -19.304811, -1.925450, -2.415008, -1.042023, -0.680176, 0.706787, -0.293213, 0.032458, 0.094919, -0.210357, 0.999867, -0.009627, -0.012075, -0.005210, -43.787479, -57.750797, -46.864740, , , 0.000000, , , 
06716, , 12.488092, 0.734031, -6.428774, 4.531334, -10.605351, -1.763812, -3.949634, -3.103482, -1.379297, -0.695801, 0.708740, -0.236328, 0.125901, 0.005229, -0.062456, 0.999661, -0.019746, -0.015516, -0.006896, -47.221232, -59.558924, -45.493051, , , 0.000000, , , 
06717, , 22.190539, -16.442802, 15.070706, -5.343870, 6.510115, 20.497220, -6.150831, -2.665237, -0.934292, -0.705078, 0.719238, -0.168701, 0.219070, -0.160658, 0.158620, 0.999427, -0.030748, -0.013324, -0.004671, -52.272115, -61.014963, -43.744116, , , 0.000000, , , 
06718, , 19.272064, -24.611272, 11.090022, -14.066531, 5.388146, 19.735984, -2.746940, -1.611640, -0.506903, -0.711426, 0.706055, -0.172852, 0.191179, -0.245030, 0.115815, 0.999870, -0.013734, -0.008058, -0.002534, -54.889790, -61.795315, -42.554139, , , 0.000000, , , 
06719, , 12.033622, -2.006906, -2.353462, 1.937107, -5.873461, 0.963356, 5.649080, -2.023812, -1.107699, -0.724609, 0.695312, -0.193604, 0.120459, -0.020084, -0.022883, 0.999535, 0.028241, -0.010117, -0.005538, -52.805986, -63.032604, -41.234082, , , 0.000000, , , 
06720, , 15.990413, 13.076002, -0.004167, 17.594951, -4.647825, -0.043447, 1.825665, -2.966635, -1.689818, -0.741943, 0.681885, -0.166016, 0.160967, 0.129382, 0.003526, 0.999813, 0.009128, -0.014832, -0.008449, -53.345322, -64.826397, -39.468012, , , 0.000000, , , 
06721, , 19.734211, -0.969694, -9.210778, 4.656740, -13.908595, 6.312919, 0.620335, -3.291698, -1.764832, -0.752686, 0.662354, -0.161377, 0.198728, -0.011168, -0.088878, 0.999821, 0.003101, -0.016458, -0.008824, -55.184235, -66.794743, -37.043496, , , 0.000000, , , 
06722, , 21.092265, 5.352220, -7.295908, 11.126287, -11.727183, 6.477494, 2.726613, -3.200827, -1.915403, -0.772461, 0.649170, -0.150391, 0.212552, 0.052449, -0.068846, 0.999733, 0.013632, -0.016003, -0.009576, -55.794240, -68.737011, -34.695707, , , 0.000000, , , 
06723, , 16.693075, 5.399422, -3.670609, 9.895330, -6.633043, 3.578920, 0.785613, -3.114594, -1.765638, -0.785645, 0.635986, -0.129150, 0.167942, 0.052651, -0.033887, 0.999832, 0.003928, -0.015572, -0.008828, -58.036671, -70.608594, -31.795858, , , 0.000000, , , 
06724, , 10.304062, -5.838921, -6.985085, -2.864479, -8.725719, 0.419958, 0.944722, -3.071985, -1.354218, -0.796387, 0.622803, -0.116211, 0.103703, -0.058764, -0.068538, 0.999848, 0.004723, -0.015359, -0.006771, -60.820261, -72.171309, -28.286676, , , 0.000000, , , 
06725, , 9.607503, 0.614921, -4.429679, 3.181059, -5.607980, -1.402707, 2.325069, -2.771991, -1.041117, -0.807373, 0.616211, -0.114014, 0.096708, 0.006151, -0.042888, 0.999823, 0.011625, -0.013859, -0.005205, -63.329551, -73.488567, -24.231419, , , 0.000000, , , 
06726, , 7.874636, 0.644463, -6.315091, 2.848904, -7.046291, -3.139383, 1.347825, -2.584846, -0.937793, -0.811523, 0.605225, -0.092529, 0.079584, 0.006494, -0.062082, 0.999883, 0.006739, -0.012924, -0.004689, -66.446366, -74.603211, -20.185561, , , 0.000000, , , 
06727, , 9.835972, -2.422698, -4.232565, 0.299974, -5.167362, -0.131007, 1.463832, -2.379840, -0.776416, -0.824951, 0.602783, -0.092529, 0.098761, -0.024305, -0.041330, 0.999895, 0.007319, -0.011899, -0.003882, -69.999971, -75.560301, -15.594943, , , 0.000000, , , 
06728, , 9.939442, 3.127204, -4.599573, 5.734561, -4.852091, -1.251509, 1.958507, -1.896590, -0.706580, -0.824707, 0.596436, -0.088135, 0.099933, 0.031362, -0.044743, 0.999901, 0.009792, -0.009483, -0.003533, -72.457123, -76.292772, -11.903713, , , 0.000000, , , 
06729, , 11.105272, 5.618006, -2.244505, 8.189820, -2.062872, -0.400267, 0.432440, -1.737533, -0.578521, -0.829102, 0.591797, -0.073242, 0.111403, 0.055905, -0.021357, 0.999956, 0.002162, -0.008688, -0.002893, -76.159240, -76.909525, -7.787536, , , 0.000000, , , 
06730, , 11.709086, 3.022192, -2.477460, 5.771463, -2.416699, 0.827863, -0.584447, -1.509577, -0.395908, -0.831299, 0.587402, -0.060547, 0.117333, 0.029919, -0.023977, 0.999965, -0.002922, -0.007548, -0.001980, -79.981280, -77.309766, -4.208969, , , 0.000000, , , 
06731, , 12.129441, 2.932700, -0.984493, 5.575034, -0.786679, 1.367286, -1.381964, -1.429149, -0.200827, -0.829102, 0.591797, -0.039551, 0.121391, 0.029140, -0.009180, 0.999950, -0.006910, -0.007146, -0.001004, -84.685226, -77.554304, -0.144189, , , 0.000000, , , 
06732, , 12.147101, 0.526529, -0.954084, 3.192876, -0.832787, 1.928243, -1.927639, -1.370107, -0.118824, -0.831299, 0.587402, -0.013916, 0.121536, 0.005106, -0.008758, 0.999930, -0.009638, -0.006850, -0.000594, -89.335715, -77.662840, 3.487707, , , 0.000000, , , 
06733, , 11.374476, -3.149013, -1.454799, -0.562917, -1.411525, 1.981318, -1.779806, -1.294910, -0.099806, -0.833496, 0.580811, 0.005127, 0.113819, -0.031670, -0.013530, 0.999939, -0.008899, -0.006474, -0.000499, -94.116073, -77.709285, 7.392556, , , 0.000000, , , 
06734, , 10.375711, -4.890658, -1.054514, -2.533022, -0.949976, 1.383958, -0.908760, -1.192299, -0.097654, -0.835938, 0.589355, 0.017578, 0.103793, -0.049003, -0.009704, 0.999972, -0.004544, -0.005961, -0.000488, -97.774088, -77.693942, 10.604931, , , 0.000000, , , 
06735, , 9.316170, -4.355095, -1.518289, -2.231815, -1.281510, 0.258994, -0.076216, -1.157446, -0.143068, -0.835938, 0.591553, 0.030273, 0.093216, -0.043623, -0.014627, 0.999983, -0.000381, -0.005787, -0.000715, -101.230427, -77.669573, 14.158648, , , 0.000000, , , 
06736, , 9.356298, -3.241249, -1.811304, -1.133358, -1.419908, 0.088094, 0.438947, -1.132183, -0.174553, -0.829102, 0.580811, 0.034668, 0.093635, -0.032455, -0.017654, 0.999981, 0.002195, -0.005661, -0.000873, -103.963710, -77.625606, 17.215573, , , 0.000000, , , 
06737, , 10.001059, -2.092517, -1.818549, 0.108545, -1.223384, 0.492541, 0.638356, -1.057855, -0.208521, -0.835693, 0.580566, 0.032715, 0.100083, -0.020972, -0.017723, 0.999980, 0.003192, -0.005289, -0.001043, -106.743558, -77.572824, 20.496752, , , 0.000000, , , 
06738, , 10.378412, -0.825703, -1.992638, 1.421550, -1.203195, 0.622571, 0.639865, -0.934773, -0.225361, -0.840088, 0.576172, 0.039062, 0.103866, -0.008311, -0.019468, 0.999983, 0.003199, -0.004674, -0.001127, -108.860593, -77.532029, 23.041654, , , 0.000000, , , 
06739, , 10.253476, 0.408628, -1.743810, 2.563568, -0.782560, 0.244981, 0.143491, -0.829387, -0.173850, -0.833496, 0.582764, 0.049561, 0.102609, 0.004009, -0.017010, 0.999991, 0.000717, -0.004147, -0.000869, -111.271791, -77.453522, 25.667686, , , 0.000000, , , 
06740, , 10.134942, -0.022475, -1.894157, 2.114826, -0.891783, 0.239035, -0.356616, -0.739904, -0.050253, -0.833496, 0.578369, 0.055908, 0.101418, -0.000284, -0.018566, 0.999992, -0.001783, -0.003700, -0.000251, -113.272970, -77.319578, 27.510501, , , 0.000000, , , 
06741, , 9.727568, -0.672650, -1.810969, 1.377713, -0.804706, -0.024350, -0.659392, -0.685932, 0.026301, -0.833496, 0.582764, 0.064209, 0.097338, -0.006773, -0.017754, 0.999989, -0.003297, -0.003430, 0.000132, -115.514514, -77.124816, 29.486082, , , 0.000000, , , 
06742, , 9.592137, -1.944452, -1.769972, 0.091519, -0.777767, 0.102400, -0.695443, -0.679152, 0.019415, -0.833496, 0.576172, 0.072754, 0.095982, -0.019496, -0.017306, 0.999988, -0.003477, -0.003396, 0.000097, -117.399847, -76.941629, 31.013432, , , 0.000000, , , 
06743, , 9.353627, -3.092378, -1.664222, -1.100220, -0.672081, 0.094891, -0.379718, -0.680578, -0.022781, -0.831299, 0.578369, 0.081299, 0.093589, -0.030966, -0.016265, 0.999992, -0.001899, -0.003403, -0.000114, -119.404428, -76.746860, 32.917262, , , 0.000000, , , 
06744, , 9.288327, -3.225599, -1.554211, -1.263659, -0.507594, 0.048258, -0.001066, -0.700511, -0.111882, -0.831299, 0.580566, 0.087646, 0.092919, -0.032308, -0.015217, 0.999994, -0.000005, -0.003503, -0.000559, -121.001499, -76.600525, 34.559516, , , 0.000000, , , 
06745, , 9.231880, -2.890770, -1.206820, -0.993224, -0.080963, -0.114896, 0.110487, -0.729711, -0.224391, -0.837891, 0.573975, 0.089844, 0.092330, -0.029005, -0.011747, 0.999993, 0.000552, -0.003649, -0.001122, -122.976137, -76.461958, 36.723066, , , 0.000000, , , 
06746, , 8.751009, -2.571624, -1.280406, -0.794246, -0.137145, -0.637576, -0.075903, -0.829906, -0.330269, -0.828857, 0.571777, 0.092041, 0.087520, -0.025866, -0.012431, 0.999990, -0.000380, -0.004150, -0.001651, -125.083841, -76.352870, 38.848419, , , 0.000000, , , 
06747, , 8.366774, -2.589877, -1.033416, -0.944409, 0.137645, -1.045325, -0.384879, -0.978017, -0.400737, -0.837891, 0.569580, 0.106689, 0.083665, -0.026086, -0.009875, 0.999984, -0.001924, -0.004890, -0.002004, -127.957243, -76.177563, 41.655401, , , 0.000000, , , 
06748, , 8.098388, -2.348549, -0.849099, -0.817827, 0.384084, -1.386356, -0.682227, -1.115461, -0.474805, -0.835449, 0.565186, 0.119629, 0.080973, -0.023705, -0.007959, 0.999976, -0.003411, -0.005577, -0.002374, -131.033023, -75.981197, 44.423223, , , 0.000000, , , 
06749, , 8.326311, -2.899822, -0.798188, -1.383742, 0.572766, -1.087496, -1.028927, -1.270292, -0.531087, -0.833252, 0.558594, 0.136475, 0.083233, -0.029258, -0.007303, 0.999963, -0.005145, -0.006351, -0.002655, -134.778948, -75.674796, 47.752140, , , 0.000000, , , 
06750, , 8.770718, -3.356044, -0.993929, -1.812469, 0.588735, -0.563782, -1.121697, -1.418506, -0.576677, -0.835205, 0.547607, 0.155762, 0.087676, -0.033866, -0.009128, 0.999955, -0.005608, -0.007092, -0.002883, -138.504170, -75.310843, 50.937901, , , 0.000000, , , 
06751, , 9.106801, -2.402615, -1.645939, -0.861933, 0.209275, -0.292922, -1.197824, -1.516568, -0.629079, -0.835205, 0.543213, 0.172852, 0.091112, -0.024408, -0.015623, 0.999948, -0.005989, -0.007583, -0.003145, -142.502254, -74.829622, 54.436779, , , 0.000000, , , 
06752, , 9.418828, -1.376786, -2.157861, 0.135337, -0.041474, -0.053431, -1.221494, -1.608116, -0.681223, -0.839355, 0.532227, 0.192139, 0.094309, -0.014217, -0.020735, 0.999943, -0.006107, -0.008040, -0.003406, -146.293057, -74.307747, 57.645041, , , 0.000000, , , 
06753, , 9.936450, -0.748645, -1.722337, 0.714733, 0.689521, 0.250625, -1.296979, -1.688033, -0.729870, -0.839111, 0.523682, 0.217529, 0.099476, -0.007957, -0.016333, 0.999937, -0.006485, -0.008440, -0.003649, -150.212653, -73.662291, 61.024051, , , 0.000000, , , 
06754, , 10.620625, -1.701880, -1.814703, -0.234750, 0.962211, 1.050178, -1.365649, -1.708950, -0.751360, -0.836914, 0.517090, 0.240967, 0.106290, -0.017537, -0.017120, 0.999933, -0.006828, -0.008545, -0.003757, -153.797909, -72.999801, 63.951571, , , 0.000000, , , 
06755, , 11.010990, -1.201470, -3.079550, 0.220123, 0.062514, 1.681285, -1.336787, -1.800499, -0.749643, -0.834473, 0.503906, 0.256104, 0.110334, -0.012629, -0.029720, 0.999930, -0.006684, -0.009002, -0.003748, -157.310320, -72.187334, 66.897294, , , 0.000000, , , 
06756, , 12.238515, 1.779928, -2.124972, 3.194398, 1.465739, 2.233366, -1.155921, -1.777103, -0.878300, -0.836426, 0.495117, 0.277344, 0.122644, 0.017142, -0.020261, 0.999934, -0.005779, -0.008885, -0.004391, -160.513879, -71.418354, 69.574174, , , 0.000000, , , 
06757, , 11.318596, 0.861753, -1.346087, 2.046537, 2.181447, 1.219697, -1.246596, -1.807269, -1.007315, -0.833984, 0.484131, 0.298584, 0.113343, 0.007967, -0.012488, 0.999927, -0.006233, -0.009036, -0.005036, -163.850855, -70.560893, 72.421066, , , 0.000000, , , 
06758, , 10.556476, -0.289435, -1.446573, 0.695256, 2.099333, 0.614175, -1.339561, -2.008499, -1.115699, -0.831543, 0.473389, 0.317871, 0.105684, -0.003576, -0.013382, 0.999912, -0.006698, -0.010042, -0.005578, -167.121110, -69.606914, 75.084861, , , 0.000000, , , 
06759, , 10.917558, -1.325490, -1.906262, -0.460060, 2.080450, 1.143442, -1.162984, -2.093903, -1.266508, -0.833496, 0.458008, 0.343506, 0.109279, -0.014053, -0.017839, 0.999908, -0.005815, -0.010469, -0.006332, -170.330648, -68.524459, 77.880332, , , 0.000000, , , 
06760, , 11.267606, -1.352509, -2.222932, -0.629858, 2.165482, 1.529059, -1.087317, -2.176249, -1.388869, -0.822021, 0.442871, 0.364990, 0.112810, -0.014424, -0.020925, 0.999902, -0.005436, -0.010881, -0.006944, -173.336018, -67.403029, 80.452366, , , 0.000000, , , 
06761, , 11.619880, -0.484021, -2.616152, 0.058376, 2.166178, 1.908856, -1.204841, -2.266201, -1.505421, -0.821533, 0.421143, 0.388672, 0.116443, -0.005868, -0.024810, 0.999889, -0.006024, -0.011331, -0.007527, -176.344465, -66.138522, 83.045441, , , 0.000000, , , 
06762, , 12.331121, -0.423989, -2.636380, -0.057425, 2.723378, 2.506165, -1.393589, -2.352481, -1.697407, -0.825684, 0.399170, 0.414551, 0.123567, -0.005465, -0.024876, 0.999871, -0.006968, -0.011762, -0.008487, -179.382688, -64.827540, 85.509066, , , 0.000000, , , 
06763, , 13.260504, -1.412611, -2.844444, -1.281643, 3.332570, 3.346410, -1.474550, -2.397897, -1.890336, -0.822998, 0.379639, 0.442383, 0.132790, -0.015582, -0.026742, 0.999856, -0.007372, -0.011989, -0.009451, 177.539522, -63.387111, 88.057806, , , 0.000000, , , 
06764, , 14.509274, -1.739578, -2.553252, -1.848246, 4.535001, 4.189485, -1.402085, -2.483697, -1.994031, -0.813477, 0.353516, 0.463867, 0.145210, -0.019013, -0.023600, 0.999849, -0.007010, -0.012418, -0.009970, 174.720440, -61.889826, 90.329447, , , 0.000000, , , 
06765, , 15.250200, -0.215326, -1.637106, -0.560134, 5.967311, 4.306452, -1.546643, -2.550585, -2.046749, -0.806641, 0.338379, 0.487549, 0.152661, -0.003832, -0.014399, 0.999836, -0.007733, -0.012752, -0.010233, 171.997546, -60.254039, 92.489967, , , 0.000000, , , 
06766, , 15.658157, 0.878400, -0.686164, 0.319416, 7.294737, 4.082709, -1.914750, -2.666627, -2.076793, -0.794678, 0.305664, 0.511475, 0.156735, 0.007104, -0.004846, 0.999811, -0.009573, -0.013332, -0.010383, 169.335293, -58.553065, 94.310370, , , 0.000000, , , 
06767, , 16.728881, 1.905864, 0.858165, 1.191359, 9.480968, 4.075877, -2.272026, -2.800623, -2.063439, -0.785400, 0.279541, 0.541504, 0.167334, 0.017446, 0.010720, 0.999784, -0.011359, -0.014002, -0.010316, 166.724992, -56.700180, 95.924149, , , 0.000000, , , 
06768, , 18.611266, 2.819433, 3.857665, 2.184011, 13.313414, 3.868238, -2.728845, -2.930269, -2.108707, -0.773438, 0.244873, 0.567627, 0.185812, 0.026782, 0.040929, 0.999744, -0.013643, -0.014650, -0.010543, 164.068196, -54.770577, 97.249188, , , 0.000000, , , 
06769, , 21.489854, 3.178440, 6.170624, 2.535172, 17.201741, 4.596894, -3.409520, -2.967972, -2.164773, -0.763672, 0.205566, 0.602051, 0.214292, 0.030545, 0.064362, 0.999686, -0.017046, -0.014838, -0.010823, 161.180261, -52.745904, 98.459286, , , 0.000000, , , 
