PacketCounter, SampleTimeFine, Acc_X, Acc_Y, Acc_Z, FreeAcc_X, FreeAcc_Y, FreeAcc_Z, Gyr_X, Gyr_Y, Gyr_Z, Mag_X, Mag_Y, Mag_Z, VelInc_X, VelInc_Y, VelInc_Z, OriInc_q0, OriInc_q1, OriInc_q2, OriInc_q3, Roll, Pitch, Yaw, Latitude, Longitude, Altitude, Vel_X, Vel_Y, Vel_Z
55301, , 9.519995, 0.017998, -2.503249, 0.000000, 0.000000, 0.030934, 0.002736, -0.009180, 0.009970, -0.841309, -0.348145, 0.356201, 0.095201, 0.000185, -0.025028, 1.000000, 0.000014, -0.000046, 0.000050, 179.576349, -75.270010, -70.066496, , , 0.000000, , , 
55302, , 9.497393, -0.020780, -2.537064, -0.000000, 0.000000, 0.017755, 0.010441, -0.015456, 0.010190, -0.839111, -0.348145, 0.362305, 0.094976, -0.000202, -0.025363, 1.000000, 0.000052, -0.000077, 0.000051, -179.544518, -75.047630, -70.685217, , , 0.000000, , , 
55303, , 9.473008, 0.006236, -2.445158, 0.014902, -0.062012, -0.029403, 0.002406, -0.022649, 0.005293, -0.838867, -0.352539, 0.366699, 0.094733, 0.000065, -0.024441, 1.000000, 0.000012, -0.000113, 0.000026, -179.979904, -75.148963, -70.354930, , , 0.000000, , , 
55304, , 9.454946, -0.002901, -2.461755, 0.016694, -0.041563, -0.042619, 0.011821, -0.018634, 0.003024, -0.841309, -0.343994, 0.358154, 0.094552, -0.000026, -0.024609, 1.000000, 0.000059, -0.000093, 0.000015, -179.966617, -75.138285, -70.361669, , , 0.000000, , , 
55305, , 9.480043, -0.044116, -2.470390, 0.055370, -0.028532, -0.016151, 0.002437, -0.022469, -0.002923, -0.841309, -0.348145, 0.360352, 0.094803, -0.000442, -0.024693, 1.000000, 0.000012, -0.000112, -0.000015, -179.966398, -75.121618, -70.358429, , , 0.000000, , , 
55306, , 9.476075, 0.016968, -2.504534, -0.012897, -0.019375, -0.011237, 0.007559, -0.026770, 0.002701, -0.841309, -0.348145, 0.362305, 0.094764, 0.000172, -0.025033, 1.000000, 0.000038, -0.000134, 0.000014, -179.956285, -75.106278, -70.364412, , , 0.000000, , , 
55307, , 9.435109, 0.126292, -2.443030, -0.098370, -0.106162, -0.066679, -0.017980, -0.052993, 0.006857, -0.841309, -0.348145, 0.358154, 0.094358, 0.001264, -0.024405, 1.000000, -0.000090, -0.000265, 0.000034, -179.950404, -75.075062, -70.380636, , , 0.000000, , , 
55308, , 9.633285, -0.127978, -2.620807, 0.101910, 0.087932, 0.170652, -0.007598, -0.056044, 0.006081, -0.834717, -0.350342, 0.360352, 0.096340, -0.001278, -0.026181, 1.000000, -0.000038, -0.000280, 0.000030, -179.941814, -75.042948, -70.394032, , , 0.000000, , , 
55309, , 9.530079, 0.070413, -2.456130, -0.039418, -0.107792, 0.028388, 0.040499, -0.037861, 0.000608, -0.841309, -0.345947, 0.364502, 0.095305, 0.000709, -0.024543, 1.000000, 0.000202, -0.000189, 0.000003, -179.920357, -75.023474, -70.393349, , , 0.000000, , , 
55310, , 9.521365, 0.136557, -2.367352, -0.073203, -0.212590, -0.003058, 0.013449, -0.038752, 0.006108, -0.839111, -0.346191, 0.360352, 0.095218, 0.001370, -0.023655, 1.000000, 0.000067, -0.000194, 0.000031, -179.899709, -75.001265, -70.406747, , , 0.000000, , , 
55311, , 9.555451, -0.002899, -2.454418, 0.033432, -0.098712, 0.052400, -0.018830, -0.040711, 0.009798, -0.841309, -0.343994, 0.366455, 0.095560, -0.000027, -0.024525, 1.000000, -0.000094, -0.000204, 0.000049, -179.890248, -74.977523, -70.427109, , , 0.000000, , , 
55312, , 9.530797, 0.007099, -2.434837, 0.028895, -0.117007, 0.023472, -0.006051, -0.023779, 0.005980, -0.834717, -0.346191, 0.360352, 0.095311, 0.000073, -0.024337, 1.000000, -0.000030, -0.000119, 0.000030, -179.881056, -74.963891, -70.440216, , , 0.000000, , , 
55313, , 9.530259, 0.006948, -2.436939, 0.028892, -0.117195, 0.023470, -0.021188, -0.020355, 0.004152, -0.836914, -0.352539, 0.356201, 0.095305, 0.000069, -0.024360, 1.000000, -0.000106, -0.000102, 0.000021, -179.882896, -74.951199, -70.449438, , , 0.000000, , , 
55314, , 9.518678, -0.002813, -2.419660, 0.043691, -0.128631, 0.007777, -0.028153, -0.021772, 0.001734, -0.836914, -0.343994, 0.364258, 0.095189, -0.000031, -0.024186, 1.000000, -0.000141, -0.000109, 0.000009, -179.895421, -74.938722, -70.453171, , , 0.000000, , , 
55315, , 9.492616, 0.038702, -2.414820, 0.004975, -0.141447, -0.018680, -0.035493, -0.019430, 0.004532, -0.843506, -0.343994, 0.364258, 0.094928, 0.000385, -0.024139, 1.000000, -0.000177, -0.000097, 0.000023, -179.912028, -74.932637, -70.458235, , , 0.000000, , , 
55316, , 9.493511, -0.008948, -2.472008, 0.032430, -0.075392, -0.002951, -0.033674, -0.021352, 0.004783, -0.834717, -0.350342, 0.364502, 0.094938, -0.000091, -0.024710, 1.000000, -0.000168, -0.000107, 0.000024, -179.921212, -74.920399, -70.468705, , , 0.000000, , , 
55317, , 9.478482, 0.042465, -2.486493, -0.021129, -0.077412, -0.013727, -0.025643, -0.021633, 0.004894, -0.843506, -0.345947, 0.358154, 0.094787, 0.000424, -0.024855, 1.000000, -0.000128, -0.000108, 0.000024, -179.925583, -74.909626, -70.478116, , , 0.000000, , , 
55318, , 9.484508, 0.041099, -2.454701, -0.008121, -0.109298, -0.016201, -0.016098, -0.022186, 0.001898, -0.841309, -0.345947, 0.362305, 0.094848, 0.000410, -0.024537, 1.000000, -0.000080, -0.000111, 0.000009, -179.930834, -74.896913, -70.482230, , , 0.000000, , , 
55319, , 9.501316, 0.032400, -2.512978, -0.016662, -0.057773, 0.015207, 0.004441, -0.013822, -0.002074, -0.843506, -0.345947, 0.364502, 0.095015, 0.000324, -0.025123, 1.000000, 0.000022, -0.000069, -0.000010, -179.941332, -74.896490, -70.470202, , , 0.000000, , , 
55320, , 9.518561, 0.040751, -2.499863, -0.018453, -0.078220, 0.028426, 0.017306, -0.016755, 0.000290, -0.839111, -0.346191, 0.364502, 0.095188, 0.000410, -0.024991, 1.000000, 0.000087, -0.000084, 0.000001, -179.930841, -74.886891, -70.470798, , , 0.000000, , , 
55321, , 9.502712, 0.018799, -2.428746, 0.024178, -0.132380, -0.005415, 0.018383, -0.010809, -0.005462, -0.841309, -0.348145, 0.360352, 0.095028, 0.000188, -0.024282, 1.000000, 0.000092, -0.000054, -0.000027, -179.936964, -74.884001, -70.452649, , , 0.000000, , , 
55322, , 9.513069, 0.011487, -2.520273, 0.002697, -0.050301, 0.028444, 0.010656, -0.012179, -0.002214, -0.841309, -0.345947, 0.362305, 0.095132, 0.000115, -0.025197, 1.000000, 0.000053, -0.000061, -0.000011, -179.935582, -74.877024, -70.447756, , , 0.000000, , , 
55323, , 9.484047, -0.007280, -2.516858, 0.019255, -0.039814, -0.000460, 0.012014, -0.015533, -0.001165, -0.839111, -0.348145, 0.364502, 0.094842, -0.000072, -0.025161, 1.000000, 0.000060, -0.000078, -0.000006, -179.941626, -74.876343, -70.435497, , , 0.000000, , , 
55324, , 9.501273, 0.001071, -2.503844, 0.017464, -0.060258, 0.012764, 0.018829, -0.017020, -0.002816, -0.841064, -0.350342, 0.362549, 0.095015, 0.000012, -0.025030, 1.000000, 0.000094, -0.000085, -0.000014, -179.936846, -74.866594, -70.429273, , , 0.000000, , , 
55325, , 9.500819, 0.000883, -2.505569, 0.017690, -0.059000, 0.012771, 0.018904, -0.019298, -0.003169, -0.836914, -0.350342, 0.360352, 0.095011, 0.000010, -0.025047, 1.000000, 0.000095, -0.000096, -0.000016, -179.946952, -74.862011, -70.408322, , , 0.000000, , , 
55326, , 9.510052, 0.058938, -2.471518, -0.024561, -0.113618, 0.012762, 0.010422, -0.020443, -0.002474, -0.841064, -0.350342, 0.364502, 0.095103, 0.000589, -0.024705, 1.000000, 0.000052, -0.000102, -0.000012, -179.946274, -74.850299, -70.402839, , , 0.000000, , , 
55327, , 9.557649, 0.055732, -2.447646, -0.008587, -0.145971, 0.052471, -0.000705, -0.017160, -0.004229, -0.836914, -0.348145, 0.362305, 0.095579, 0.000555, -0.024468, 1.000000, -0.000004, -0.000086, -0.000021, -179.972749, -74.849150, -70.377342, , , 0.000000, , , 
55328, , 9.582860, 0.015013, -2.455819, 0.030085, -0.132233, 0.078930, 0.003092, -0.010463, -0.003118, -0.841309, -0.348145, 0.360352, 0.095830, 0.000149, -0.024553, 1.000000, 0.000015, -0.000052, -0.000016, -179.977620, -74.843157, -70.370464, , , 0.000000, , , 
55329, , 9.546155, 0.046318, -2.430171, 0.005947, -0.155426, 0.036818, 0.012044, -0.000245, -0.008064, -0.839111, -0.350342, 0.358398, 0.095462, 0.000461, -0.024302, 1.000000, 0.000060, -0.000001, -0.000040, -179.997108, -74.854457, -70.343771, , , 0.000000, , , 
55330, , 9.502553, 0.061454, -2.508703, -0.037611, -0.078081, 0.015251, 0.022355, 0.006443, -0.003743, -0.830322, -0.348389, 0.366455, 0.095025, 0.000616, -0.025090, 1.000000, 0.000112, 0.000032, -0.000019, -179.992260, -74.858154, -70.335530, , , 0.000000, , , 
55331, , 9.496105, 0.062815, -2.541893, -0.050489, -0.044480, 0.017707, 0.030086, 0.007818, -0.006996, -0.834961, -0.343994, 0.358154, 0.094960, 0.000629, -0.025423, 1.000000, 0.000150, 0.000039, -0.000035, 179.994541, -74.871777, -70.304115, , , 0.000000, , , 
55332, , 9.526719, 0.050717, -2.530056, -0.032942, -0.058040, 0.044172, 0.017814, 0.007437, -0.002642, -0.839111, -0.350342, 0.366699, 0.095266, 0.000508, -0.025304, 1.000000, 0.000089, 0.000037, -0.000013, 179.999078, -74.876038, -70.298249, , , 0.000000, , , 
55333, , 9.546250, 0.028718, -2.499116, -0.000764, -0.081265, 0.054972, -0.003102, 0.002998, -0.001653, -0.836914, -0.348145, 0.364502, 0.095462, 0.000286, -0.024993, 1.000000, -0.000016, 0.000015, -0.000008, 179.983882, -74.887869, -70.283530, , , 0.000000, , , 
55334, , 9.537021, -0.011573, -2.463762, 0.048171, -0.097299, 0.036843, -0.015531, -0.000291, -0.001361, -0.832764, -0.346191, 0.364502, 0.095370, -0.000118, -0.024637, 1.000000, -0.000078, -0.000001, -0.000007, 179.972043, -74.887702, -70.280489, , , 0.000000, , , 
55335, , 9.597903, -0.035019, -2.441363, 0.083208, -0.123048, 0.089795, -0.018404, 0.003334, 0.000696, -0.832520, -0.348389, 0.370850, 0.095979, -0.000352, -0.024415, 1.000000, -0.000092, 0.000017, 0.000003, 179.954021, -74.897110, -70.270392, , , 0.000000, , , 
55336, , 9.530593, -0.009017, -2.496892, 0.035110, -0.064058, 0.039288, -0.029606, 0.008894, -0.000708, -0.834717, -0.348145, 0.362305, 0.095305, -0.000094, -0.024973, 1.000000, -0.000148, 0.000044, -0.000004, 179.935486, -74.902192, -70.268763, , , 0.000000, , , 
55337, , 9.549764, -0.047852, -2.536751, 0.060843, -0.017328, 0.068172, -0.028846, 0.008672, 0.001848, -0.836914, -0.346191, 0.364502, 0.095497, -0.000481, -0.025372, 1.000000, -0.000144, 0.000043, 0.000009, 179.913172, -74.912869, -70.259452, , , 0.000000, , , 
55338, , 9.515117, -0.046977, -2.494022, 0.071116, -0.047133, 0.023598, -0.017486, 0.006197, -0.000904, -0.832764, -0.343994, 0.360107, 0.095150, -0.000472, -0.024943, 1.000000, -0.000087, 0.000031, -0.000005, 179.901137, -74.916376, -70.257354, , , 0.000000, , , 
55339, , 9.484935, -0.034649, -2.504253, 0.052727, -0.031999, -0.002863, -0.009676, 0.012754, 0.000261, -0.834717, -0.348145, 0.362305, 0.094848, -0.000348, -0.025049, 1.000000, -0.000048, 0.000064, 0.000001, 179.902036, -74.934051, -70.260058, , , 0.000000, , , 
55340, , 9.468057, -0.025623, -2.446412, 0.061216, -0.082240, -0.034181, -0.001191, 0.013902, -0.000433, -0.841064, -0.350342, 0.362549, 0.094679, -0.000257, -0.024471, 1.000000, -0.000006, 0.000070, -0.000002, 179.900369, -74.941972, -70.259021, , , 0.000000, , , 
55341, , 9.438006, -0.013714, -2.456135, 0.043392, -0.066703, -0.060641, 0.006764, 0.015901, 0.000027, -0.839111, -0.348145, 0.362305, 0.094378, -0.000136, -0.024569, 1.000000, 0.000034, 0.000080, 0.000000, 179.894986, -74.962667, -70.248363, , , 0.000000, , , 
55342, , 9.475000, -0.044718, -2.480781, 0.067255, -0.041468, -0.018524, 0.001010, 0.015688, -0.000630, -0.841064, -0.350342, 0.362549, 0.094748, -0.000447, -0.024815, 1.000000, 0.000005, 0.000078, -0.000003, 179.894127, -74.971614, -70.246862, , , 0.000000, , , 
55343, , 9.438338, -0.031390, -2.524488, 0.036229, 0.006090, -0.042585, 0.005394, 0.011613, 0.002426, -0.836914, -0.348145, 0.364502, 0.094382, -0.000312, -0.025250, 1.000000, 0.000027, 0.000058, 0.000012, 179.895944, -74.990972, -70.244425, , , 0.000000, , , 
55344, , 9.421381, -0.022866, -2.466846, 0.044723, -0.044161, -0.073882, 0.007666, 0.011118, 0.001876, -0.843506, -0.345947, 0.362305, 0.094212, -0.000227, -0.024674, 1.000000, 0.000038, 0.000056, 0.000009, 179.904276, -74.997313, -70.248493, , , 0.000000, , , 
55345, , 9.475861, -0.045550, -2.477474, 0.065930, -0.037578, -0.018499, 0.005997, 0.008484, 0.000919, -0.841309, -0.348145, 0.360352, 0.094758, -0.000454, -0.024779, 1.000000, 0.000030, 0.000042, 0.000005, 179.914748, -75.013523, -70.252235, , , 0.000000, , , 
55346, , 9.463267, -0.025120, -2.473332, 0.046601, -0.044480, -0.031723, 0.003043, 0.006924, -0.001441, -0.843262, -0.348145, 0.362305, 0.094632, -0.000252, -0.024737, 1.000000, 0.000015, 0.000035, -0.000007, 179.913435, -75.017457, -70.249052, , , 0.000000, , , 
55347, , 9.504837, -0.026920, -2.481025, 0.048444, -0.044294, 0.010440, -0.004086, 0.002421, 0.000299, -0.841309, -0.345947, 0.360352, 0.095048, -0.000270, -0.024811, 1.000000, -0.000020, 0.000012, 0.000001, 179.913659, -75.032939, -70.250271, , , 0.000000, , , 
55348, , 9.525191, 0.023843, -2.535491, -0.015313, -0.016784, 0.044190, -0.003187, -0.002364, 0.002148, -0.841064, -0.350342, 0.362549, 0.095252, 0.000239, -0.025354, 1.000000, -0.000016, -0.000012, 0.000011, 179.916553, -75.031580, -70.255141, , , 0.000000, , , 
55349, , 9.537896, 0.002904, -2.539205, 0.003188, -0.007884, 0.057417, 0.014152, -0.004002, 0.003768, -0.847656, -0.345947, 0.366455, 0.095379, 0.000033, -0.025390, 1.000000, 0.000071, -0.000020, 0.000019, 179.935090, -75.041857, -70.264086, , , 0.000000, , , 
55350, , 9.528797, -0.021056, -2.433524, 0.058844, -0.094607, 0.021337, 0.020583, -0.009198, 0.002567, -0.843262, -0.348145, 0.362305, 0.095289, -0.000207, -0.024331, 1.000000, 0.000103, -0.000046, 0.000013, 179.952556, -75.036600, -70.269945, , , 0.000000, , , 
55351, , 9.576251, -0.042593, -2.479705, 0.066696, -0.055831, 0.079116, 0.014756, -0.007131, 0.002262, -0.839111, -0.348145, 0.362305, 0.095763, -0.000423, -0.024794, 1.000000, 0.000074, -0.000036, 0.000011, 179.975734, -75.045854, -70.281677, , , 0.000000, , , 
55352, , 9.550525, -0.002260, -2.473516, 0.028033, -0.069645, 0.052665, 0.008696, -0.005868, 0.006467, -0.836914, -0.346191, 0.360352, 0.095506, -0.000018, -0.024732, 1.000000, 0.000043, -0.000029, 0.000032, 179.994904, -75.042513, -70.296334, , , 0.000000, , , 
55353, , 9.545650, -0.031981, -2.491579, 0.048350, -0.040744, 0.052627, 0.006898, 0.003700, 0.002766, -0.845703, -0.345947, 0.366455, 0.095456, -0.000318, -0.024918, 1.000000, 0.000034, 0.000018, 0.000014, -179.990260, -75.054850, -70.304372, , , 0.000000, , , 
55354, , 9.510462, -0.049765, -2.520423, 0.051913, 0.000076, 0.026073, 0.011210, 0.001906, 0.006176, -0.845459, -0.352539, 0.362549, 0.095104, -0.000493, -0.025205, 1.000000, 0.000056, 0.000010, 0.000031, -179.970256, -75.055971, -70.318403, , , 0.000000, , , 
55355, , 9.492862, -0.059156, -2.534856, 0.052806, 0.022511, 0.012797, 0.014013, 0.000561, 0.004474, -0.847656, -0.345947, 0.368652, 0.094929, -0.000588, -0.025349, 1.000000, 0.000070, 0.000003, 0.000022, -179.948889, -75.069171, -70.330913, , , 0.000000, , , 
55356, , 9.473471, -0.037902, -2.565415, 0.020441, 0.047487, 0.001933, 0.018630, -0.002710, 0.003023, -0.843506, -0.345947, 0.360352, 0.094735, -0.000375, -0.025653, 1.000000, 0.000093, -0.000014, 0.000015, -179.931353, -75.067657, -70.337988, , , 0.000000, , , 
55357, , 9.439837, -0.086440, -2.578988, 0.056701, 0.085392, -0.027052, 0.024992, -0.005625, 0.002175, -0.845459, -0.350342, 0.362549, 0.094399, -0.000860, -0.025787, 1.000000, 0.000125, -0.000028, 0.000011, -179.893722, -75.076430, -70.357632, , , 0.000000, , , 
55358, , 9.444472, -0.058399, -2.561822, 0.035564, 0.058070, -0.026996, 0.036198, -0.011181, 0.003586, -0.845459, -0.348145, 0.366455, 0.094446, -0.000578, -0.025613, 1.000000, 0.000181, -0.000056, 0.000018, -179.864741, -75.070072, -70.366115, , , 0.000000, , , 
55359, , 9.468269, -0.052395, -2.514981, 0.045926, 0.007299, -0.016064, 0.021253, -0.022242, 0.004170, -0.845459, -0.348145, 0.362305, 0.094685, -0.000519, -0.025139, 1.000000, 0.000106, -0.000111, 0.000021, -179.836610, -75.067437, -70.382252, , , 0.000000, , , 
55360, , 9.474335, -0.054884, -2.483114, 0.058925, -0.024587, -0.018413, 0.017924, -0.020042, 0.007024, -0.845459, -0.348145, 0.360352, 0.094746, -0.000543, -0.024822, 1.000000, 0.000090, -0.000100, 0.000035, -179.810793, -75.056009, -70.398302, , , 0.000000, , , 
55361, , 9.502491, -0.037168, -2.489864, 0.041171, -0.031614, 0.010522, 0.010952, -0.021463, 0.004614, -0.845703, -0.345947, 0.360352, 0.095028, -0.000368, -0.024888, 1.000000, 0.000055, -0.000107, 0.000023, -179.784784, -75.056397, -70.419976, , , 0.000000, , , 
55362, , 9.539040, -0.051240, -2.446673, 0.071686, -0.076972, 0.034701, 0.014070, -0.016820, 0.002812, -0.852051, -0.343750, 0.366455, 0.095392, -0.000509, -0.024459, 1.000000, 0.000070, -0.000084, 0.000014, -179.770190, -75.046886, -70.426718, , , 0.000000, , , 
55363, , 9.532086, -0.050475, -2.481822, 0.056664, -0.043145, 0.037063, 0.008851, -0.010418, 0.005767, -0.847656, -0.348145, 0.368652, 0.095322, -0.000501, -0.024813, 1.000000, 0.000044, -0.000052, 0.000029, -179.724728, -75.055465, -70.465650, , , 0.000000, , , 
55364, , 9.526974, -0.080300, -2.500596, 0.077724, -0.015807, 0.037001, 0.012039, -0.008056, 0.003614, -0.845703, -0.343994, 0.368652, 0.095271, -0.000800, -0.025002, 1.000000, 0.000060, -0.000040, 0.000018, -179.709206, -75.051034, -70.474546, , , 0.000000, , , 
55365, , 9.542284, -0.059616, -2.573545, 0.033503, 0.040023, 0.070589, 0.028881, -0.001196, 0.002919, -0.847656, -0.350342, 0.362549, 0.095423, -0.000591, -0.025735, 1.000000, 0.000144, -0.000006, 0.000015, -179.660766, -75.058517, -70.501689, , , 0.000000, , , 
55366, , 9.529477, -0.040372, -2.570303, 0.014133, 0.033107, 0.057355, 0.048976, -0.001889, 0.003179, -0.845703, -0.345947, 0.362305, 0.095295, -0.000396, -0.025702, 1.000000, 0.000245, -0.000009, 0.000016, -179.624745, -75.057591, -70.509865, , , 0.000000, , , 
55367, , 9.520130, -0.082427, -2.535170, 0.061921, 0.018803, 0.039347, 0.056795, -0.002791, -0.000424, -0.845459, -0.348145, 0.364502, 0.095202, -0.000817, -0.025351, 1.000000, 0.000284, -0.000014, -0.000002, -179.581238, -75.067996, -70.523958, , , 0.000000, , , 
55368, , 9.487849, -0.041471, -2.562759, 0.010209, 0.036861, 0.015195, 0.048152, -0.007011, 0.004436, -0.845703, -0.345947, 0.364502, 0.094879, -0.000406, -0.025624, 1.000000, 0.000241, -0.000035, 0.000022, -179.543063, -75.064202, -70.534880, , , 0.000000, , , 
55369, , 9.531348, -0.057970, -2.484490, 0.052606, -0.039184, 0.037102, 0.037086, -0.006176, 0.010545, -0.845459, -0.345947, 0.368652, 0.095314, -0.000570, -0.024842, 1.000000, 0.000185, -0.000031, 0.000053, -179.483377, -75.069515, -70.574780, , , 0.000000, , , 
55370, , 9.504263, -0.108660, -2.464113, 0.103314, -0.034831, 0.005805, 0.025257, -0.004968, 0.005879, -0.845703, -0.345947, 0.362305, 0.095043, -0.001081, -0.024639, 1.000000, 0.000126, -0.000025, 0.000029, -179.455163, -75.066919, -70.588980, , , 0.000000, , , 
55371, , 9.504178, -0.109903, -2.464387, 0.101974, -0.033780, 0.005823, 0.022382, -0.001339, 0.007928, -0.849854, -0.350342, 0.362549, 0.095042, -0.001093, -0.024643, 1.000000, 0.000112, -0.000007, 0.000040, -179.404508, -75.074517, -70.626552, , , 0.000000, , , 
55372, , 9.515214, -0.101213, -2.483655, 0.087068, -0.022250, 0.021437, 0.020494, 0.002865, 0.008021, -0.845703, -0.345947, 0.362305, 0.095152, -0.001006, -0.024838, 1.000000, 0.000102, 0.000014, 0.000040, -179.374154, -75.076417, -70.645791, , , 0.000000, , , 
55373, , 9.437280, -0.069430, -2.449235, 0.059368, -0.043822, -0.062796, 0.020038, 0.001439, 0.008825, -0.849854, -0.345947, 0.366455, 0.094373, -0.000688, -0.024493, 1.000000, 0.000100, 0.000007, 0.000044, -179.330667, -75.089865, -70.684336, , , 0.000000, , , 
55374, , 9.481914, -0.013237, -2.455564, 0.006701, -0.068472, -0.018203, 0.019812, 0.000650, 0.013337, -0.847900, -0.343994, 0.364258, 0.094819, -0.000124, -0.024556, 1.000000, 0.000099, 0.000003, 0.000067, -179.289350, -75.090552, -70.715367, , , 0.000000, , , 
55375, , 9.432126, 0.019067, -2.497274, -0.044931, -0.028657, -0.055695, 0.017838, -0.000344, 0.009028, -0.852051, -0.345947, 0.366455, 0.094321, 0.000197, -0.024973, 1.000000, 0.000089, -0.000002, 0.000045, -179.231132, -75.101559, -70.763787, , , 0.000000, , , 
55376, , 9.432797, -0.048771, -2.623379, -0.024374, 0.108255, -0.022394, 0.033472, -0.002319, 0.010040, -0.845703, -0.343994, 0.368652, 0.094328, -0.000479, -0.026233, 1.000000, 0.000167, -0.000012, 0.000050, -179.188940, -75.100612, -70.787622, , , 0.000000, , , 
55377, , 9.467570, -0.051382, -2.665519, -0.036308, 0.139138, 0.022039, 0.065062, -0.000127, 0.003736, -0.847900, -0.343994, 0.370605, 0.094676, -0.000503, -0.026655, 1.000000, 0.000325, -0.000001, 0.000019, -179.117040, -75.108673, -70.820949, , , 0.000000, , , 
55378, , 9.513462, -0.044773, -2.726716, -0.061624, 0.180648, 0.082085, 0.096605, 0.004211, 0.005996, -0.849854, -0.343750, 0.362305, 0.095134, -0.000432, -0.027269, 1.000000, 0.000483, 0.000021, 0.000030, -179.046972, -75.111505, -70.836184, , , 0.000000, , , 
55379, , 9.595134, -0.003778, -2.688192, -0.085268, 0.111430, 0.150912, 0.092371, -0.004042, 0.013936, -0.845703, -0.343994, 0.366455, 0.095952, -0.000019, -0.026880, 1.000000, 0.000462, -0.000020, 0.000070, -178.937118, -75.116429, -70.893976, , , 0.000000, , , 
55380, , 9.651408, -0.042420, -2.612961, -0.022542, 0.041185, 0.186155, 0.058507, -0.005725, 0.020792, -0.839111, -0.348145, 0.370850, 0.096515, -0.000407, -0.026127, 1.000000, 0.000293, -0.000029, 0.000104, -178.857151, -75.113436, -70.942035, , , 0.000000, , , 
55381, , 9.729731, -0.060862, -2.576558, 0.010639, -0.006297, 0.252593, 0.012470, -0.004730, 0.027834, -0.847900, -0.341797, 0.372559, 0.097298, -0.000593, -0.025763, 1.000000, 0.000062, -0.000024, 0.000139, -178.789712, -75.109228, -71.004457, , , 0.000000, , , 
55382, , 9.731377, -0.094125, -2.560499, 0.044683, -0.010818, 0.250245, -0.024213, 0.002554, 0.032905, -0.847900, -0.343994, 0.370605, 0.097314, -0.000928, -0.025606, 1.000000, -0.000121, 0.000013, 0.000165, -178.730934, -75.110756, -71.079642, , , 0.000000, , , 
55383, , 9.669120, -0.162906, -2.567791, 0.098045, 0.034055, 0.192371, -0.039233, 0.008882, 0.035132, -0.850098, -0.339600, 0.368408, 0.096690, -0.001617, -0.025682, 1.000000, -0.000196, 0.000044, 0.000176, -178.653111, -75.116234, -71.178093, , , 0.000000, , , 
55384, , 9.627394, -0.181090, -2.629530, 0.088549, 0.106759, 0.168029, -0.050453, 0.014434, 0.033706, -0.849854, -0.345947, 0.368652, 0.096272, -0.001801, -0.026302, 1.000000, -0.000252, 0.000072, 0.000169, -178.606790, -75.124460, -71.255901, , , 0.000000, , , 
55385, , 9.572534, -0.196397, -2.758676, 0.051707, 0.243505, 0.148251, -0.059545, 0.016434, 0.035901, -0.847900, -0.343994, 0.364258, 0.095723, -0.001955, -0.027594, 1.000000, -0.000298, 0.000082, 0.000180, -178.535003, -75.137578, -71.364002, , , 0.000000, , , 
55386, , 9.497763, -0.244111, -2.761913, 0.086749, 0.281681, 0.077125, -0.046692, 0.015812, 0.038618, -0.850098, -0.341797, 0.366455, 0.094976, -0.002429, -0.027626, 1.000000, -0.000233, 0.000079, 0.000193, -178.475473, -75.146492, -71.453227, , , 0.000000, , , 
55387, , 9.531329, -0.217210, -2.818545, 0.040979, 0.316424, 0.123902, -0.028141, 0.017681, 0.042335, -0.845703, -0.341797, 0.366455, 0.095311, -0.002156, -0.028194, 1.000000, -0.000141, 0.000088, 0.000212, -178.373908, -75.159487, -71.576991, , , 0.000000, , , 
55388, , 9.548928, -0.230325, -2.873291, 0.032281, 0.366813, 0.155025, -0.017406, 0.020470, 0.049654, -0.854248, -0.341797, 0.366455, 0.095487, -0.002282, -0.028742, 1.000000, -0.000087, 0.000102, 0.000248, -178.273096, -75.170868, -71.691566, , , 0.000000, , , 
55389, , 9.595571, -0.328243, -2.831405, 0.135965, 0.350635, 0.190220, -0.029623, 0.017845, 0.053659, -0.854492, -0.339600, 0.366455, 0.095954, -0.003261, -0.028322, 1.000000, -0.000148, 0.000089, 0.000268, -178.139716, -75.179880, -71.847198, , , 0.000000, , , 
55390, , 9.650456, -0.337414, -2.770387, 0.164507, 0.284959, 0.227827, -0.058148, 0.015026, 0.061959, -0.847900, -0.341797, 0.360107, 0.096504, -0.003352, -0.027710, 1.000000, -0.000291, 0.000075, 0.000310, -178.035506, -75.187813, -71.989416, , , 0.000000, , , 
55391, , 9.618911, -0.401678, -2.695041, 0.241456, 0.245459, 0.178784, -0.100828, 0.016239, 0.066478, -0.854248, -0.341797, 0.364258, 0.096188, -0.003998, -0.026956, 1.000000, -0.000504, 0.000081, 0.000332, -177.907464, -75.196982, -72.185017, , , 0.000000, , , 
55392, , 9.573410, -0.413901, -2.631525, 0.266586, 0.204058, 0.118763, -0.150858, 0.039687, 0.067554, -0.856445, -0.341797, 0.366455, 0.095730, -0.004127, -0.026331, 1.000000, -0.000754, 0.000198, 0.000338, -177.841699, -75.218865, -72.342408, , , 0.000000, , , 
55393, , 9.468837, -0.448954, -2.643629, 0.282329, 0.254867, 0.021159, -0.201249, 0.061788, 0.069446, -0.854248, -0.341797, 0.362305, 0.094682, -0.004483, -0.026461, 0.999999, -0.001006, 0.000309, 0.000347, -177.751664, -75.252171, -72.557490, , , 0.000000, , , 
55394, , 9.417079, -0.492179, -2.752294, 0.280934, 0.386810, -0.000950, -0.230137, 0.089918, 0.061362, -0.854248, -0.345947, 0.358154, 0.094160, -0.004925, -0.027560, 0.999999, -0.001151, 0.000450, 0.000307, -177.739353, -75.302908, -72.706526, , , 0.000000, , , 
55395, , 9.321381, -0.487628, -2.954100, 0.200482, 0.599845, -0.042702, -0.233520, 0.103872, 0.057787, -0.852051, -0.345947, 0.358154, 0.093200, -0.004884, -0.029584, 0.999999, -0.001168, 0.000519, 0.000289, -177.696135, -75.360502, -72.897813, , , 0.000000, , , 
55396, , 9.226221, -0.668742, -3.252733, 0.265714, 0.964040, -0.058167, -0.154970, 0.102860, 0.050512, -0.854248, -0.343750, 0.354004, 0.092247, -0.006689, -0.032570, 1.000000, -0.000775, 0.000514, 0.000253, -177.662099, -75.418943, -73.024757, , , 0.000000, , , 
55397, , 9.116974, -0.159922, -3.073671, -0.170200, 0.665745, -0.214768, -0.047714, 0.088309, 0.040741, -0.856445, -0.341553, 0.358154, 0.091156, -0.001588, -0.030777, 1.000000, -0.000239, 0.000442, 0.000204, -177.548703, -75.463185, -73.180870, , , 0.000000, , , 
55398, , 9.149325, -0.358606, -3.153663, -0.008660, 0.802719, -0.161786, -0.162481, 0.060197, 0.040965, -0.856445, -0.345947, 0.355957, 0.091484, -0.003593, -0.031561, 1.000000, -0.000812, 0.000301, 0.000205, -177.542958, -75.497450, -73.283036, , , 0.000000, , , 
55399, , 9.206956, -0.510734, -3.414059, 0.053032, 1.078775, -0.039350, -0.046454, 0.050339, 0.030152, -0.854248, -0.343750, 0.354004, 0.092062, -0.005101, -0.034163, 1.000000, -0.000232, 0.000252, 0.000151, -177.441437, -75.514001, -73.422211, , , 0.000000, , , 
55400, , 9.258407, -0.222086, -3.229320, -0.158507, 0.805895, -0.039185, -0.119450, 0.010990, 0.034596, -0.860840, -0.339600, 0.355957, 0.092583, -0.002224, -0.032297, 1.000000, -0.000597, 0.000055, 0.000173, -177.429474, -75.520247, -73.505327, , , 0.000000, , , 
55401, , 9.336016, -0.608549, -3.389202, 0.161039, 1.055700, 0.080633, -0.121116, -0.011099, 0.023292, -0.856445, -0.343750, 0.351807, 0.093363, -0.006095, -0.033883, 1.000000, -0.000606, -0.000055, 0.000116, -177.376825, -75.497860, -73.638003, , , 0.000000, , , 
55402, , 9.422610, -0.536344, -3.331951, 0.117429, 0.958455, 0.149376, 0.021501, -0.001341, 0.005434, -0.860840, -0.339600, 0.351807, 0.094226, -0.005357, -0.033319, 1.000000, 0.000108, -0.000007, 0.000027, -177.349706, -75.497840, -73.653360, , , 0.000000, , , 
55403, , 9.458856, -0.284425, -2.989261, -0.012866, 0.551569, 0.096003, 0.009075, 0.017835, -0.008279, -0.862793, -0.348145, 0.349854, 0.094586, -0.002847, -0.029901, 1.000000, 0.000045, 0.000089, -0.000041, -177.279764, -75.492065, -73.732251, , , 0.000000, , , 
55404, , 9.453500, -0.211639, -2.737004, 0.000734, 0.300775, 0.026732, -0.211820, 0.007154, -0.011978, -0.856445, -0.343750, 0.354004, 0.094534, -0.002151, -0.027371, 0.999999, -0.001059, 0.000036, -0.000060, -177.423690, -75.497481, -73.709035, , , 0.000000, , , 
55405, , 9.595692, -0.588920, -3.014326, 0.286975, 0.641767, 0.237988, -0.240267, 0.026565, -0.029628, -0.860596, -0.348145, 0.352051, 0.095952, -0.005940, -0.030149, 0.999999, -0.001201, 0.000133, -0.000148, -177.563081, -75.496259, -73.723699, , , 0.000000, , , 
55406, , 9.616462, -0.433599, -2.951685, 0.168001, 0.537426, 0.240159, -0.115354, 0.086250, -0.055208, -0.862793, -0.348145, 0.352051, 0.096151, -0.004380, -0.029556, 1.000000, -0.000577, 0.000431, -0.000276, -177.740606, -75.548048, -73.608752, , , 0.000000, , , 
55407, , 9.647454, -0.325804, -2.747395, 0.135219, 0.316718, 0.217721, -0.119905, 0.126572, -0.069897, -0.860596, -0.348145, 0.349854, 0.096456, -0.003308, -0.027533, 1.000000, -0.000600, 0.000633, -0.000349, -177.882014, -75.601829, -73.547049, , , 0.000000, , , 
55408, , 9.640315, -0.308043, -2.643230, 0.156538, 0.234670, 0.184193, -0.151988, 0.166975, -0.098124, -0.860596, -0.348145, 0.345703, 0.096380, -0.003148, -0.026510, 0.999999, -0.000760, 0.000835, -0.000491, -178.172738, -75.700571, -73.337021, , , 0.000000, , , 
55409, , 9.730029, -0.328000, -2.625491, 0.193431, 0.221614, 0.266384, -0.201768, 0.214487, -0.117892, -0.860596, -0.345947, 0.343506, 0.097270, -0.003364, -0.026356, 0.999999, -0.001009, 0.001072, -0.000589, -178.458747, -75.805988, -73.173267, , , 0.000000, , , 
55410, , 9.796699, -0.456366, -2.551229, 0.351579, 0.207986, 0.312794, -0.179528, 0.301169, -0.147901, -0.862793, -0.352295, 0.335449, 0.097925, -0.004659, -0.025656, 0.999998, -0.000898, 0.001506, -0.000740, -178.879493, -75.981752, -72.845689, , , 0.000000, , , 
55411, , 9.628362, -0.286574, -2.350450, 0.242787, 0.046242, 0.099468, -0.014171, 0.444285, -0.194965, -0.858154, -0.358887, 0.343994, 0.096228, -0.002961, -0.023718, 0.999997, -0.000071, 0.002221, -0.000975, -179.220600, -76.223768, -72.516880, , , 0.000000, , , 
55412, , 9.070397, -0.047621, -1.930386, 0.108441, -0.241112, -0.542808, 0.041146, 0.472968, -0.227858, -0.862549, -0.358887, 0.335449, 0.090657, -0.000576, -0.019518, 0.999997, 0.000206, 0.002365, -0.001139, -179.720999, -76.497406, -71.977920, , , 0.000000, , , 
55413, , 8.806840, 0.098275, -1.922560, -0.042086, -0.193742, -0.800093, 0.114095, 0.444535, -0.245823, -0.862549, -0.358887, 0.331299, 0.088027, 0.000886, -0.019421, 0.999997, 0.000570, 0.002223, -0.001229, 179.810060, -76.729134, -71.434873, , , 0.000000, , , 
55414, , 8.480754, 0.236609, -2.118298, -0.252766, 0.058480, -1.072041, 0.240037, 0.471255, -0.261502, -0.871338, -0.354492, 0.327148, 0.084760, 0.002281, -0.021380, 0.999996, 0.001200, 0.002356, -0.001308, 179.300015, -76.999382, -70.770125, , , 0.000000, , , 
55415, , 7.691026, 0.678875, -2.083453, -0.720605, 0.092001, -1.848664, 0.296003, 0.496476, -0.242540, -0.869141, -0.358887, 0.322998, 0.076866, 0.006727, -0.021015, 0.999995, 0.001480, 0.002482, -0.001213, 178.950922, -77.267132, -70.243926, , , 0.000000, , , 
55416, , 7.215366, 0.866693, -2.540967, -1.078133, 0.590305, -2.212803, 0.259781, 0.477533, -0.219209, -0.868896, -0.363037, 0.312744, 0.072102, 0.008621, -0.025571, 0.999996, 0.001299, 0.002388, -0.001096, 178.514756, -77.539391, -69.644704, , , 0.000000, , , 
55417, , 7.143117, 0.966676, -2.891923, -1.294490, 0.931033, -2.211427, 0.242249, 0.516529, -0.178609, -0.866943, -0.360840, 0.312744, 0.071365, 0.009638, -0.029092, 0.999996, 0.001211, 0.002583, -0.000893, 178.228311, -77.823330, -69.226600, , , 0.000000, , , 
55418, , 7.616823, 0.958730, -2.728429, -1.207251, 0.730040, -1.788418, 0.203267, 0.594460, -0.162745, -0.864502, -0.363037, 0.312744, 0.076094, 0.009553, -0.027501, 0.999995, 0.001016, 0.002972, -0.000814, 177.856216, -78.162243, -68.727386, , , 0.000000, , , 
55419, , 8.653165, 0.885041, -1.970459, -0.828056, -0.097222, -0.933055, 0.106264, 0.655210, -0.116310, -0.873047, -0.367432, 0.308594, 0.086472, 0.008811, -0.019983, 0.999994, 0.000531, 0.003276, -0.000582, 177.567188, -78.515620, -68.385363, , , 0.000000, , , 
55420, , 9.728108, 0.550818, -1.213016, -0.205978, -0.826809, -0.030843, 0.010186, 0.688094, -0.029152, -0.879883, -0.360840, 0.295898, 0.097239, 0.005495, -0.012464, 0.999994, 0.000051, 0.003440, -0.000146, 177.407420, -78.910540, -68.216789, , , 0.000000, , , 
55421, , 10.449845, 0.273271, -1.510795, -0.010357, -0.527175, 0.736153, -0.055972, 0.640204, 0.010854, -0.875488, -0.365234, 0.293945, 0.104449, 0.002734, -0.015443, 0.999995, -0.000280, 0.003201, 0.000054, 177.379416, -79.263921, -68.233244, , , 0.000000, , , 
55422, , 11.353637, 0.047921, -2.469790, -0.065599, 0.342251, 1.801333, -0.133702, 0.533748, 0.037164, -0.875488, -0.360840, 0.291748, 0.113470, 0.000484, -0.025001, 0.999996, -0.000669, 0.002669, 0.000186, 177.346594, -79.572314, -68.278110, , , 0.000000, , , 
55423, , 11.948970, -0.051726, -3.507521, -0.285275, 1.293614, 2.569886, -0.158830, 0.494683, 0.053715, -0.879639, -0.364990, 0.281494, 0.119403, -0.000513, -0.035370, 0.999997, -0.000794, 0.002473, 0.000269, 177.396818, -79.840096, -68.429940, , , 0.000000, , , 
55424, , 11.743683, -0.012928, -4.466692, -0.660744, 2.265294, 2.528186, -0.099257, 0.480603, 0.016238, -0.879883, -0.360840, 0.283447, 0.117329, -0.000142, -0.044949, 0.999997, -0.000496, 0.002403, 0.000081, 177.326641, -80.117565, -68.416751, , , 0.000000, , , 
55425, , 11.497998, -0.005078, -4.951916, -0.857694, 2.809311, 2.356831, 0.091438, 0.551138, -0.030372, -0.884033, -0.367188, 0.275146, 0.114843, -0.000045, -0.049836, 0.999996, 0.000457, 0.002756, -0.000152, 177.247104, -80.409859, -68.294754, , , 0.000000, , , 
55426, , 10.238588, 0.620170, -3.883587, -1.204748, 1.862322, 0.928617, 0.128776, 0.518161, -0.070478, -0.884033, -0.367188, 0.270996, 0.102287, 0.006191, -0.039097, 0.999996, 0.000644, 0.002591, -0.000352, 176.995223, -80.706376, -67.964945, , , 0.000000, , , 
55427, , 10.219567, 0.140491, -3.913233, -0.770673, 2.089480, 0.902381, 0.075449, 0.352271, -0.100433, -0.890381, -0.367188, 0.269043, 0.102127, 0.001368, -0.039312, 0.999998, 0.000377, 0.001761, -0.000502, 176.641577, -80.874693, -67.580906, , , 0.000000, , , 
55428, , 9.780299, 0.135409, -3.546108, -0.680192, 1.846815, 0.403673, 0.154032, 0.292737, -0.100250, -0.890625, -0.364990, 0.268799, 0.097752, 0.001332, -0.035603, 0.999999, 0.000770, 0.001464, -0.000501, 176.311292, -81.040698, -67.157473, , , 0.000000, , , 
55429, , 9.734977, 0.020011, -3.295998, -0.497978, 1.677168, 0.315139, 0.238272, 0.235794, -0.098584, -0.890625, -0.364990, 0.264648, 0.097311, 0.000192, -0.033074, 0.999998, 0.001191, 0.001179, -0.000493, 176.111761, -81.133887, -66.831111, , , 0.000000, , , 
55430, , 9.409767, 0.310246, -2.782118, -0.630039, 1.169762, -0.085672, 0.225785, 0.220689, -0.092567, -0.885986, -0.369385, 0.270996, 0.094068, 0.003090, -0.027921, 0.999999, 0.001129, 0.001103, -0.000463, 175.849308, -81.258511, -66.434997, , , 0.000000, , , 
55431, , 9.222782, -0.259586, -3.031131, -0.188987, 1.630987, -0.240907, 0.231913, 0.218918, -0.091910, -0.888184, -0.369385, 0.266846, 0.092193, -0.002603, -0.030415, 0.999999, 0.001160, 0.001095, -0.000460, 175.639710, -81.334564, -66.102450, , , 0.000000, , , 
55432, , 8.900651, 0.137151, -2.655050, -0.464174, 1.213506, -0.614775, 0.214343, 0.246832, -0.093101, -0.888428, -0.367188, 0.264893, 0.088974, 0.001359, -0.026659, 0.999999, 0.001072, 0.001234, -0.000466, 175.344486, -81.473581, -65.680038, , , 0.000000, , , 
55433, , 8.817470, -0.156856, -2.602323, -0.177026, 1.290754, -0.710653, 0.147065, 0.270269, -0.102893, -0.884033, -0.367188, 0.264893, 0.088139, -0.001595, -0.026144, 0.999999, 0.000735, 0.001351, -0.000514, 175.007754, -81.574058, -65.268907, , , 0.000000, , , 
55434, , 8.890961, -0.057781, -2.476066, -0.227775, 1.154705, -0.658554, 0.167551, 0.261937, -0.095388, -0.890625, -0.362793, 0.260498, 0.088877, -0.000599, -0.024878, 0.999999, 0.000838, 0.001310, -0.000477, 174.648296, -81.720824, -64.808935, , , 0.000000, , , 
55435, , 8.915858, 0.256232, -2.494373, -0.530735, 1.077595, -0.629162, 0.243418, 0.277000, -0.104338, -0.888428, -0.367188, 0.260498, 0.089125, 0.002546, -0.025064, 0.999998, 0.001217, 0.001385, -0.000522, 174.378198, -81.821686, -64.411934, , , 0.000000, , , 
55436, , 8.848617, 0.604715, -2.627240, -0.913327, 1.114374, -0.675399, 0.309317, 0.279446, -0.111761, -0.886230, -0.364990, 0.264648, 0.088453, 0.006038, -0.026387, 0.999998, 0.001547, 0.001397, -0.000559, 174.002115, -81.976707, -63.853381, , , 0.000000, , , 
55437, , 8.791750, 0.855656, -2.576056, -1.139436, 0.999975, -0.737184, 0.359381, 0.275570, -0.106847, -0.888428, -0.364990, 0.258545, 0.087886, 0.008556, -0.025866, 0.999997, 0.001797, 0.001378, -0.000534, 173.751588, -82.069148, -63.406771, , , 0.000000, , , 
55438, , 8.684863, 1.124911, -2.419307, -1.351630, 0.794606, -0.863555, 0.296891, 0.282320, -0.102214, -0.886230, -0.367188, 0.252197, 0.086820, 0.011241, -0.024299, 0.999998, 0.001484, 0.001412, -0.000511, 173.377066, -82.225453, -62.857264, , , 0.000000, , , 
55439, , 8.702264, 1.079701, -2.416920, -1.308449, 0.821001, -0.848842, 0.070493, 0.261908, -0.102665, -0.892578, -0.367188, 0.252197, 0.086996, 0.010761, -0.024279, 0.999999, 0.000352, 0.001310, -0.000513, 172.935666, -82.315348, -62.393146, , , 0.000000, , , 
55440, , 8.784630, 0.908410, -2.471413, -1.163168, 0.947498, -0.765476, 0.029934, 0.283697, -0.109152, -0.892578, -0.373535, 0.252441, 0.087816, 0.009040, -0.024837, 0.999999, 0.000150, 0.001418, -0.000546, 172.341709, -82.470702, -61.776877, , , 0.000000, , , 
55441, , 8.817020, 0.818213, -2.449708, -1.065862, 0.975280, -0.739481, -0.055421, 0.292514, -0.109482, -0.886230, -0.364990, 0.250000, 0.088139, 0.008127, -0.024628, 0.999999, -0.000277, 0.001463, -0.000547, 171.721458, -82.573270, -61.197516, , , 0.000000, , , 
55442, , 8.879682, 0.703797, -2.654610, -1.025191, 1.227631, -0.656658, -0.100574, 0.277229, -0.095453, -0.894775, -0.371338, 0.246094, 0.088763, 0.006982, -0.026673, 0.999999, -0.000503, 0.001386, -0.000477, 171.069916, -82.724340, -60.598942, , , 0.000000, , , 
55443, , 8.937254, 0.697384, -2.735788, -1.038299, 1.318953, -0.591645, -0.192871, 0.273472, -0.082411, -0.890381, -0.367188, 0.246094, 0.089338, 0.006911, -0.027487, 0.999999, -0.000964, 0.001367, -0.000412, 170.490442, -82.812791, -60.147029, , , 0.000000, , , 
55444, , 8.986163, 0.546018, -2.974914, -0.974202, 1.618891, -0.521325, -0.188153, 0.289716, -0.066222, -0.892578, -0.369385, 0.241943, 0.089820, 0.005402, -0.029884, 0.999998, -0.000941, 0.001449, -0.000331, 169.865918, -82.972082, -59.626536, , , 0.000000, , , 
55445, , 8.934851, 0.519270, -3.014580, -0.962369, 1.691171, -0.571335, -0.149555, 0.311654, -0.052832, -0.896729, -0.375732, 0.235840, 0.089303, 0.005146, -0.030289, 0.999998, -0.000748, 0.001558, -0.000264, 169.406067, -83.077620, -59.272511, , , 0.000000, , , 
55446, , 8.780970, 0.647376, -2.871490, -1.045388, 1.560926, -0.744029, -0.174960, 0.324572, -0.050219, -0.888184, -0.373535, 0.231445, 0.087765, 0.006427, -0.028863, 0.999998, -0.000875, 0.001623, -0.000251, 168.788015, -83.256952, -58.751162, , , 0.000000, , , 
55447, , 8.700642, 0.261303, -3.214054, -0.800190, 2.044801, -0.797257, -0.228488, 0.325709, -0.041153, -0.894531, -0.377930, 0.231689, 0.086954, 0.002558, -0.032285, 0.999998, -0.001142, 0.001629, -0.000206, 168.211056, -83.373778, -58.323942, , , 0.000000, , , 
55448, , 8.623317, 0.184053, -3.237625, -0.741617, 2.131548, -0.880492, -0.181852, 0.312515, -0.028355, -0.894531, -0.377930, 0.221191, 0.086183, 0.001799, -0.032513, 0.999998, -0.000909, 0.001563, -0.000142, 167.653648, -83.547678, -57.867919, , , 0.000000, , , 
55449, , 8.659396, 0.184004, -3.264382, -0.744623, 2.172527, -0.846039, -0.216022, 0.286190, -0.017019, -0.898926, -0.375732, 0.223145, 0.086547, 0.001797, -0.032770, 0.999998, -0.001080, 0.001431, -0.000085, 167.195883, -83.640587, -57.551662, , , 0.000000, , , 
55450, , 8.667273, 0.162528, -3.259035, -0.723623, 2.199843, -0.845728, -0.208607, 0.252290, -0.002269, -0.896729, -0.377930, 0.221191, 0.086632, 0.001590, -0.032701, 0.999999, -0.001043, 0.001261, -0.000011, 166.781618, -83.783350, -57.255306, , , 0.000000, , , 
55451, , 8.746521, 0.094356, -3.157133, -0.617754, 2.130975, -0.781889, -0.162939, 0.208657, 0.007051, -0.896729, -0.379883, 0.217041, 0.087432, 0.000921, -0.031663, 0.999999, -0.000815, 0.001043, 0.000035, 166.612695, -83.828424, -57.201013, , , 0.000000, , , 
55452, , 8.768755, 0.104198, -3.054103, -0.594648, 2.046629, -0.774593, -0.098816, 0.171104, 0.004166, -0.896729, -0.375732, 0.218994, 0.087661, 0.001029, -0.030617, 1.000000, -0.000494, 0.000856, 0.000021, 166.377233, -83.926506, -57.021288, , , 0.000000, , , 
55453, , 8.815098, 0.106578, -3.075593, -0.599190, 2.064884, -0.726776, -0.021182, 0.145509, 0.005060, -0.898926, -0.379883, 0.212891, 0.088129, 0.001065, -0.030820, 1.000000, -0.000106, 0.000728, 0.000025, 166.342967, -83.932273, -57.024539, , , 0.000000, , , 
55454, , 8.890449, 0.214909, -3.078715, -0.703282, 2.035704, -0.651571, 0.080516, 0.106178, -0.000873, -0.896729, -0.375732, 0.218994, 0.088888, 0.002161, -0.030833, 1.000000, 0.000403, 0.000531, -0.000004, 166.261841, -83.993403, -56.896691, , , 0.000000, , , 
55455, , 9.052172, 0.312988, -2.916035, -0.732415, 1.829283, -0.503535, 0.163883, 0.039648, -0.008637, -0.898926, -0.375732, 0.214844, 0.090516, 0.003150, -0.029176, 1.000000, 0.000819, 0.000198, -0.000043, 166.409066, -83.935198, -56.976940, , , 0.000000, , , 
55456, , 9.185813, 0.570701, -2.752174, -0.917429, 1.577209, -0.381354, 0.124695, -0.013029, -0.004625, -0.894531, -0.380127, 0.219238, 0.091860, 0.005722, -0.027512, 1.000000, 0.000623, -0.000065, -0.000023, 166.486759, -83.929391, -56.983315, , , 0.000000, , , 
55457, , 9.106618, 0.955966, -2.653564, -1.245422, 1.346602, -0.457403, -0.054147, -0.077430, 0.000322, -0.898926, -0.373535, 0.221191, 0.091076, 0.009553, -0.026503, 1.000000, -0.000271, -0.000387, 0.000002, 166.678628, -83.804444, -57.235680, , , 0.000000, , , 
55458, , 9.194084, 0.953511, -3.011639, -1.348016, 1.667293, -0.330425, -0.345874, -0.188374, 0.016678, -0.898682, -0.384277, 0.217285, 0.091968, 0.009491, -0.030046, 0.999998, -0.001729, -0.000942, 0.000083, 166.805601, -83.703551, -57.562830, , , 0.000000, , , 
55459, , 9.289804, 0.759070, -3.416504, -1.270162, 2.080176, -0.189347, -0.358346, -0.172198, 0.016268, -0.898926, -0.375732, 0.217041, 0.092927, 0.007537, -0.034099, 0.999998, -0.001792, -0.000861, 0.000081, 166.987347, -83.523646, -57.975335, , , 0.000000, , , 
55460, , 9.443445, 0.660530, -3.783872, -1.275606, 2.432876, 0.004978, -0.075618, -0.137863, -0.004699, -0.896484, -0.382080, 0.221436, 0.094461, 0.006589, -0.037776, 1.000000, -0.000378, -0.000689, -0.000023, 167.090040, -83.447923, -58.122335, , , 0.000000, , , 
55461, , 9.277882, 1.348463, -3.257386, -1.753250, 1.706787, -0.193904, 0.002412, -0.105309, -0.016663, -0.894531, -0.377930, 0.223389, 0.092797, 0.013477, -0.032525, 1.000000, 0.000012, -0.000527, -0.000083, 167.230502, -83.300062, -58.292401, , , 0.000000, , , 
55462, , 9.106137, 1.293399, -3.648889, -1.828644, 2.099035, -0.317473, -0.149427, -0.194318, -0.033841, -0.894531, -0.380127, 0.221191, 0.091099, 0.012891, -0.036410, 0.999999, -0.000747, -0.000972, -0.000169, 167.206988, -83.188968, -58.354942, , , 0.000000, , , 
55463, , 9.215908, 1.281874, -4.383084, -2.024143, 2.750849, -0.110977, 0.060973, -0.276266, -0.058964, -0.894531, -0.380127, 0.225586, 0.092223, 0.012805, -0.043700, 0.999999, 0.000305, -0.001381, -0.000295, 167.329898, -82.936651, -58.482000, , , 0.000000, , , 
55464, , 9.305711, 1.766559, -4.378983, -2.465342, 2.547308, 0.001875, 0.263933, -0.378637, -0.067579, -0.892334, -0.380127, 0.233887, 0.093146, 0.017692, -0.043590, 0.999997, 0.001320, -0.001893, -0.000338, 167.568758, -82.718131, -58.570300, , , 0.000000, , , 
55465, , 9.487705, 2.080527, -4.035305, -2.619922, 2.043789, 0.166668, 0.255836, -0.452154, -0.046150, -0.892334, -0.380127, 0.235840, 0.094973, 0.020835, -0.040112, 0.999997, 0.001279, -0.002261, -0.000231, 167.986000, -82.360961, -58.883426, , , 0.000000, , , 
55466, , 9.487464, 2.581928, -3.078797, -2.772072, 0.931841, 0.066804, 0.097218, -0.519377, 0.006306, -0.887939, -0.382324, 0.242188, 0.094953, 0.025837, -0.030529, 0.999997, 0.000486, -0.002597, 0.000032, 168.523505, -82.071831, -59.369636, , , 0.000000, , , 
55467, , 9.251213, 1.902227, -2.856757, -2.049987, 0.910225, -0.203669, -0.153826, -0.634150, 0.063662, -0.890137, -0.377930, 0.244141, 0.092596, 0.019030, -0.028289, 0.999995, -0.000769, -0.003171, 0.000318, 169.156380, -81.623405, -60.137489, , , 0.000000, , , 
55468, , 9.541509, 1.585822, -2.635591, -1.639942, 0.710583, 0.051736, -0.297081, -0.740796, 0.091911, -0.888184, -0.373535, 0.250244, 0.095505, 0.015863, -0.026026, 0.999992, -0.001485, -0.003704, 0.000460, 169.853573, -81.216952, -61.014607, , , 0.000000, , , 
55469, , 10.627360, 1.224461, -2.134725, -1.025835, 0.125875, 1.046793, -0.488103, -0.855080, 0.100148, -0.883789, -0.377930, 0.258789, 0.106358, 0.012246, -0.020923, 0.999988, -0.002441, -0.004275, 0.000501, 170.461455, -80.649193, -61.970810, , , 0.000000, , , 
55470, , 12.433170, 0.402925, -1.685606, 0.062793, -0.383542, 2.734635, -0.692653, -0.889883, 0.056586, -0.883545, -0.380127, 0.258789, 0.124404, 0.004007, -0.016317, 0.999984, -0.003463, -0.004449, 0.000283, 170.756885, -80.152648, -62.672793, , , 0.000000, , , 
55471, , 14.597865, -0.904153, -1.410215, 1.610296, -0.682180, 4.776504, -0.554395, -0.683888, -0.027169, -0.876953, -0.384521, 0.265381, 0.146024, -0.009099, -0.013578, 0.999990, -0.002772, -0.003419, -0.000136, 170.665437, -79.672875, -62.953582, , , 0.000000, , , 
55472, , 16.413300, -2.269396, -0.680775, 3.307734, -1.302858, 6.385193, -0.108676, -0.232137, -0.083187, -0.879150, -0.384521, 0.267334, 0.164131, -0.022766, -0.006605, 0.999999, -0.000543, -0.001161, -0.000416, 170.476200, -79.534971, -62.824335, , , 0.000000, , , 
55473, , 16.470761, -2.343592, 0.147243, 3.655600, -2.076885, 6.284609, 0.551560, 0.233410, -0.136745, -0.883545, -0.382324, 0.263184, 0.164693, -0.023552, 0.001215, 0.999995, 0.002758, 0.001167, -0.000684, 170.200464, -79.572184, -62.263348, , , 0.000000, , , 
55474, , 14.346310, -1.378666, 0.567960, 2.690735, -2.359446, 4.159866, 0.744052, 0.499229, -0.178460, -0.881348, -0.384521, 0.265381, 0.143464, -0.013935, 0.005270, 0.999990, 0.003720, 0.002496, -0.000892, 169.809514, -79.837156, -61.432541, , , 0.000000, , , 
55475, , 11.168887, -1.261691, -0.419532, 2.012713, -0.913345, 1.215742, 0.426564, 0.586408, -0.184817, -0.881348, -0.382324, 0.259033, 0.111664, -0.012711, -0.004550, 0.999993, 0.002133, 0.002932, -0.000924, 169.126792, -80.080743, -60.516866, , , 0.000000, , , 
55476, , 8.727258, -0.247565, -2.049851, 0.333465, 0.703928, -0.878405, 0.180094, 0.353787, -0.135477, -0.881348, -0.386475, 0.257080, 0.087234, -0.002516, -0.020655, 0.999998, 0.000900, 0.001769, -0.000677, 168.574857, -80.265630, -59.851815, , , 0.000000, , , 
55477, , 9.392803, 1.183680, -2.401396, -1.065674, 0.495442, -0.116743, -0.686476, 0.184777, -0.017465, -0.879150, -0.386475, 0.252686, 0.093907, 0.011746, -0.024141, 0.999994, -0.003432, 0.000924, -0.000087, 168.012199, -80.306598, -59.708029, , , 0.000000, , , 
55478, , 10.219706, 1.111708, 0.859156, 0.066063, -2.631350, 0.161679, -0.761514, 0.214459, 0.086240, -0.879150, -0.388672, 0.246582, 0.102201, 0.011193, 0.008439, 0.999992, -0.003808, 0.001072, 0.000431, 167.719277, -80.438118, -59.853300, , , 0.000000, , , 
55479, , 10.580046, 2.651131, 3.659647, -0.561997, -5.783838, 0.116565, -0.776161, 0.019377, 0.166932, -0.885742, -0.386475, 0.242432, 0.105782, 0.026741, 0.036483, 0.999992, -0.003881, 0.000097, 0.000835, 167.796114, -80.414863, -60.414216, , , 0.000000, , , 
55480, , 10.555123, 2.426981, 2.186423, -0.832579, -4.310791, 0.326589, -1.119588, 0.061613, 0.188559, -0.883301, -0.393066, 0.242432, 0.105535, 0.024491, 0.021695, 0.999984, -0.005598, 0.000308, 0.000943, 167.748094, -80.473199, -61.015858, , , 0.000000, , , 
55481, , 10.147884, 1.530799, -0.320665, -0.741069, -1.618761, 0.299491, -0.462609, -0.074072, 0.143458, -0.883301, -0.393066, 0.238281, 0.101469, 0.015373, -0.003205, 0.999997, -0.002313, -0.000370, 0.000717, 167.959765, -80.402792, -61.510092, , , 0.000000, , , 
55482, , 10.545545, 0.976083, -0.246234, -0.166576, -1.602405, 0.657575, -0.246922, -0.221736, 0.108853, -0.883545, -0.384521, 0.240234, 0.105453, 0.009815, -0.002358, 0.999998, -0.001235, -0.001109, 0.000544, 168.341002, -80.292159, -62.040149, , , 0.000000, , , 
55483, , 11.027356, -0.122986, 0.320585, 1.079507, -1.927287, 0.996599, -0.467174, -0.151495, 0.092252, -0.881348, -0.390869, 0.234131, 0.110272, -0.001171, 0.003292, 0.999997, -0.002336, -0.000757, 0.000461, 168.412810, -80.177033, -62.402626, , , 0.000000, , , 
55484, , 10.984365, -1.169604, 0.249372, 2.054067, -1.578963, 0.928546, -0.631024, -0.041490, 0.089159, -0.883301, -0.390869, 0.236328, 0.109848, -0.011639, 0.002553, 0.999995, -0.003155, -0.000207, 0.000446, 168.377840, -80.164869, -62.733906, , , 0.000000, , , 
55485, , 11.189860, -1.727493, -0.561439, 2.391756, -0.707070, 1.245881, -0.704308, -0.016655, 0.116666, -0.881104, -0.393066, 0.234131, 0.111909, -0.017229, -0.005544, 0.999994, -0.003522, -0.000083, 0.000583, 168.282803, -80.140941, -63.054700, , , 0.000000, , , 
55486, , 10.785894, -1.760308, -0.857522, 2.308540, -0.365559, 0.897426, -0.680976, 0.089639, 0.153795, -0.889893, -0.393066, 0.232178, 0.107869, -0.017549, -0.008564, 0.999994, -0.003405, 0.000448, 0.000769, 168.340585, -80.209928, -63.509176, , , 0.000000, , , 
55487, , 10.226163, -1.619819, -1.395076, 1.990712, 0.188907, 0.441377, -0.660824, 0.121990, 0.184334, -0.889893, -0.393066, 0.223633, 0.102268, -0.016150, -0.013960, 0.999994, -0.003304, 0.000610, 0.000922, 168.420464, -80.268701, -63.972605, , , 0.000000, , , 
55488, , 10.144321, -1.828554, -2.333255, 1.947916, 1.151290, 0.510834, -0.557510, 0.150315, 0.221753, -0.894043, -0.397217, 0.215576, 0.101446, -0.018238, -0.023358, 0.999995, -0.002788, 0.000752, 0.001109, 168.741034, -80.379060, -64.621699, , , 0.000000, , , 
55489, , 9.460804, -0.822654, -1.580160, 1.091612, 0.287519, -0.252030, -0.366781, 0.125129, 0.248585, -0.894287, -0.390869, 0.213135, 0.094608, -0.008138, -0.015846, 0.999997, -0.001834, 0.000626, 0.001243, 169.219408, -80.458825, -65.288229, , , 0.000000, , , 
55490, , 9.263736, -0.732156, -1.584467, 0.972158, 0.299596, -0.441000, -0.651833, 0.053067, 0.270709, -0.885498, -0.395020, 0.211182, 0.092643, -0.007248, -0.015846, 0.999994, -0.003259, 0.000265, 0.001354, 169.732148, -80.517876, -66.186706, , , 0.000000, , , 
55491, , 8.665267, -0.552750, -1.923233, 0.669641, 0.667768, -0.969789, -0.613709, 0.023617, 0.279440, -0.894287, -0.390869, 0.215332, 0.086658, -0.005465, -0.019226, 0.999994, -0.003069, 0.000118, 0.001397, 170.245242, -80.546792, -67.043075, , , 0.000000, , , 
55492, , 8.329548, -0.278029, -1.952929, 0.363871, 0.677668, -1.287375, -0.571296, -0.047329, 0.257095, -0.892334, -0.384277, 0.213135, 0.083304, -0.002729, -0.019502, 0.999995, -0.002856, -0.000237, 0.001285, 170.825841, -80.545128, -67.963474, , , 0.000000, , , 
55493, , 8.134929, -0.334288, -2.077323, 0.373931, 0.827084, -1.459233, -0.539174, -0.082360, 0.241605, -0.896484, -0.386475, 0.210938, 0.081362, -0.003301, -0.020731, 0.999996, -0.002696, -0.000412, 0.001208, 171.362059, -80.493581, -68.819700, , , 0.000000, , , 
55494, , 7.953809, -0.373451, -1.782765, 0.456088, 0.567978, -1.685563, -0.418923, -0.113889, 0.238163, -0.898682, -0.386475, 0.204834, 0.079553, -0.003677, -0.017775, 0.999997, -0.002095, -0.000569, 0.001191, 171.991110, -80.449573, -69.700906, , , 0.000000, , , 
55495, , 7.854927, -0.444363, -1.516730, 0.567374, 0.326461, -1.827120, -0.404433, -0.118223, 0.226955, -0.898682, -0.386475, 0.208984, 0.078563, -0.004385, -0.015112, 0.999997, -0.002022, -0.000591, 0.001135, 172.555782, -80.380510, -70.491718, , , 0.000000, , , 
55496, , 7.716116, -0.571645, -1.397983, 0.699553, 0.246831, -1.985220, -0.411384, -0.120639, 0.214794, -0.898682, -0.388672, 0.211182, 0.077176, -0.005662, -0.013922, 0.999997, -0.002057, -0.000603, 0.001074, 173.097387, -80.328116, -71.280180, , , 0.000000, , , 
55497, , 7.645834, -0.708181, -1.303373, 0.842082, 0.178503, -2.072010, -0.407893, -0.114405, 0.214812, -0.903076, -0.384277, 0.206787, 0.076473, -0.007026, -0.012976, 0.999997, -0.002039, -0.000572, 0.001074, 173.571931, -80.252735, -71.971991, , , 0.000000, , , 
55498, , 7.472232, -0.755363, -1.115175, 0.906535, 0.021709, -2.274376, -0.377505, -0.075343, 0.224323, -0.896484, -0.386475, 0.204834, 0.074735, -0.007491, -0.011109, 0.999998, -0.001888, -0.000377, 0.001122, 174.132842, -80.224354, -72.760633, , , 0.000000, , , 
55499, , 7.409953, -0.814812, -0.950526, 0.984000, -0.126317, -2.363487, -0.315093, -0.034120, 0.215725, -0.898682, -0.384277, 0.200439, 0.074110, -0.008083, -0.009480, 0.999998, -0.001575, -0.000171, 0.001079, 174.631038, -80.199767, -73.419007, , , 0.000000, , , 
55500, , 7.336773, -0.724614, -0.824785, 0.903990, -0.258949, -2.454066, -0.263205, 0.021248, 0.196330, -0.901123, -0.377686, 0.204590, 0.073374, -0.007185, -0.008246, 0.999999, -0.001316, 0.000106, 0.000982, 175.130347, -80.222712, -74.078777, , , 0.000000, , , 
55501, , 7.293481, -1.075090, -1.409414, 1.126209, 0.379486, -2.401563, -0.158779, 0.067626, 0.155027, -0.903076, -0.382080, 0.204590, 0.072938, -0.010706, -0.014110, 0.999999, -0.000794, 0.000338, 0.000775, 175.512085, -80.255740, -74.538403, , , 0.000000, , , 
55502, , 7.140816, -1.021183, -1.593722, 1.022356, 0.576059, -2.519063, 0.030377, 0.101852, 0.109146, -0.896729, -0.379883, 0.198242, 0.071406, -0.010170, -0.015975, 1.000000, 0.000152, 0.000509, 0.000546, 175.874887, -80.319439, -74.888909, , , 0.000000, , , 
55503, , 7.204222, -1.123759, -1.641600, 1.108605, 0.637590, -2.449063, 0.105576, 0.115523, 0.076968, -0.896729, -0.379883, 0.204590, 0.072037, -0.011201, -0.016464, 1.000000, 0.000528, 0.000578, 0.000385, 176.127445, -80.374437, -75.061011, , , 0.000000, , , 
55504, , 7.349827, -1.120516, -1.392051, 1.149630, 0.381066, -2.346333, 0.178243, 0.131824, 0.057751, -0.907471, -0.379883, 0.200439, 0.073492, -0.011171, -0.013979, 0.999999, 0.000891, 0.000659, 0.000289, 176.402060, -80.452780, -75.236059, , , 0.000000, , , 
55505, , 7.611679, -1.314960, -1.376054, 1.346401, 0.371023, -2.091948, 0.173723, 0.152208, 0.060268, -0.901123, -0.373535, 0.200195, 0.076110, -0.013115, -0.013830, 0.999999, 0.000869, 0.000761, 0.000301, 176.643651, -80.523366, -75.354406, , , 0.000000, , , 
55506, , 7.793686, -1.055567, -1.378538, 1.089744, 0.305575, -1.908563, 0.155841, 0.149985, 0.056050, -0.901123, -0.373535, 0.206543, 0.077929, -0.010523, -0.013852, 0.999999, 0.000779, 0.000750, 0.000280, 176.902456, -80.611769, -75.526373, , , 0.000000, , , 
55507, , 7.839985, -0.810386, -1.726587, 0.774214, 0.595555, -1.803375, 0.184609, 0.164467, 0.062368, -0.903320, -0.373535, 0.200195, 0.078388, -0.008063, -0.017338, 0.999999, 0.000923, 0.000822, 0.000312, 177.217751, -80.685794, -75.742053, , , 0.000000, , , 
55508, , 8.215477, -1.102457, -2.309119, 0.950408, 1.170980, -1.341146, 0.145270, 0.150833, 0.057839, -0.907471, -0.377686, 0.202393, 0.082141, -0.010984, -0.023161, 0.999999, 0.000726, 0.000754, 0.000289, 177.484899, -80.774398, -75.928523, , , 0.000000, , , 
55509, , 8.669940, -1.316821, -2.615057, 1.104599, 1.451257, -0.845298, 0.288613, 0.183983, 0.054312, -0.901123, -0.373535, 0.202393, 0.086679, -0.013107, -0.026249, 0.999998, 0.001443, 0.000920, 0.000272, 177.815132, -80.859555, -76.073099, , , 0.000000, , , 
55510, , 9.018473, -1.534833, -2.821383, 1.272180, 1.660421, -0.470672, 0.393720, 0.194460, 0.038698, -0.905518, -0.373535, 0.202393, 0.090160, -0.015275, -0.028332, 0.999998, 0.001969, 0.000972, 0.000193, 178.160089, -80.972388, -76.194110, , , 0.000000, , , 
55511, , 9.425586, -1.753114, -3.006921, 1.441668, 1.840947, -0.040837, 0.567594, 0.188307, 0.023496, -0.903320, -0.371338, 0.202148, 0.094230, -0.017434, -0.030208, 0.999996, 0.002838, 0.000942, 0.000117, 178.555158, -81.054896, -76.256390, , , 0.000000, , , 
55512, , 9.898272, -2.009624, -3.264054, 1.627474, 2.097973, 0.464380, 0.766569, 0.178048, -0.003114, -0.903320, -0.373535, 0.204346, 0.098953, -0.019972, -0.032805, 0.999992, 0.003833, 0.000890, -0.000016, 178.973803, -81.157475, -76.235683, , , 0.000000, , , 
55513, , 10.320809, -1.698232, -3.147268, 1.333246, 1.875492, 0.865010, 0.944745, 0.153030, -0.033080, -0.903564, -0.369141, 0.202148, 0.103181, -0.016850, -0.031631, 0.999989, 0.004724, 0.000765, -0.000165, 179.386962, -81.218398, -76.095699, , , 0.000000, , , 
55514, , 10.832378, -1.610353, -3.264817, 1.208900, 1.915244, 1.388339, 0.854070, 0.109176, -0.043597, -0.909912, -0.369141, 0.208496, 0.108302, -0.015987, -0.032776, 0.999991, 0.004270, 0.000546, -0.000218, 179.715151, -81.281305, -75.932743, , , 0.000000, , , 
55515, , 10.980647, -1.452207, -3.640923, 0.939806, 2.228970, 1.592933, 0.925387, 0.079149, -0.023511, -0.907715, -0.366943, 0.210449, 0.109790, -0.014366, -0.036519, 0.999989, 0.004627, 0.000396, -0.000118, -179.813149, -81.301358, -75.855882, , , 0.000000, , , 
55516, , 11.026119, -0.956105, -3.841471, 0.378505, 2.298278, 1.668641, 0.789843, -0.005603, -0.004723, -0.903564, -0.364990, 0.208252, 0.110262, -0.009412, -0.038449, 0.999992, 0.003949, -0.000028, -0.000024, -179.374623, -81.298679, -75.841798, , , 0.000000, , , 
55517, , 10.904338, -0.826066, -3.866413, 0.211284, 2.297110, 1.554576, 0.767576, -0.058919, 0.015716, -0.903564, -0.362793, 0.214600, 0.109055, -0.008104, -0.038663, 0.999993, 0.003838, -0.000295, 0.000079, -178.844414, -81.240019, -75.921690, , , 0.000000, , , 
55518, , 10.718063, -0.918488, -4.060918, 0.213063, 2.520811, 1.403888, 0.711015, -0.147753, 0.041598, -0.905762, -0.360596, 0.222900, 0.107212, -0.009018, -0.040562, 0.999993, 0.003555, -0.000739, 0.000208, -178.293591, -81.155281, -76.066949, , , 0.000000, , , 
55519, , 10.333645, -1.254863, -4.471855, 0.383649, 3.028161, 1.097825, 0.710595, -0.288792, 0.055935, -0.903809, -0.356201, 0.233154, 0.103404, -0.012361, -0.044613, 0.999993, 0.003553, -0.001444, 0.000280, -177.676840, -80.957166, -76.278317, , , 0.000000, , , 
55520, , 10.147518, -1.374976, -4.658484, 0.417549, 3.226110, 0.956796, 0.534189, -0.463006, 0.049965, -0.903564, -0.358398, 0.235352, 0.101586, -0.013600, -0.046386, 0.999994, 0.002671, -0.002315, 0.000250, -177.263566, -80.691304, -76.387015, , , 0.000000, , , 
55521, , 10.035481, -1.852346, -5.020242, 0.759305, 3.653563, 0.930655, 0.395223, -0.646358, 0.064339, -0.906006, -0.356201, 0.241455, 0.100522, -0.018392, -0.049914, 0.999993, 0.001976, -0.003232, 0.000322, -176.880669, -80.275766, -76.553488, , , 0.000000, , , 
55522, , 10.650149, -1.294291, -4.665342, 0.342166, 2.974860, 1.496535, 0.525054, -0.898053, 0.079314, -0.906006, -0.349854, 0.255859, 0.106715, -0.012779, -0.046208, 0.999986, 0.002625, -0.004490, 0.000397, -176.489084, -79.759755, -76.645700, , , 0.000000, , , 
55523, , 11.952472, -0.275268, -3.444332, -0.227186, 1.177056, 2.571260, 0.407915, -1.081717, 0.120984, -0.901855, -0.347656, 0.262207, 0.119710, -0.002611, -0.033802, 0.999983, 0.002040, -0.005409, 0.000605, -176.029063, -79.090949, -76.875386, , , 0.000000, , , 
55524, , 13.171321, 0.495127, -2.369116, -0.583853, -0.424555, 3.559617, 0.083421, -1.113301, 0.169377, -0.893311, -0.343506, 0.276611, 0.131838, 0.005073, -0.022955, 0.999984, 0.000417, -0.005566, 0.000847, -175.723131, -78.447954, -77.138604, , , 0.000000, , , 
55525, , 13.412055, 0.759350, -1.715171, -0.618067, -1.317395, 3.651427, -0.343415, -1.067849, 0.217809, -0.893311, -0.343506, 0.280762, 0.134201, 0.007711, -0.016448, 0.999984, -0.001717, -0.005339, 0.001089, -175.476520, -77.783989, -77.617714, , , 0.000000, , , 
55526, , 13.777275, 0.795088, -1.254223, -0.484049, -1.984181, 3.892972, -0.703513, -1.193833, 0.250582, -0.897461, -0.345703, 0.291260, 0.137834, 0.008081, -0.011748, 0.999975, -0.003518, -0.005969, 0.001253, -175.477901, -77.090887, -78.029292, , , 0.000000, , , 
55527, , 14.305934, 0.306584, -1.158949, 0.048979, -2.215290, 4.371285, -0.877442, -1.051929, 0.302361, -0.893066, -0.345703, 0.291260, 0.143113, 0.003233, -0.010851, 0.999975, -0.004387, -0.005260, 0.001512, -175.393580, -76.437242, -78.642000, , , 0.000000, , , 
55528, , 13.274387, -0.275380, -0.329167, 0.782049, -2.715142, 3.164569, -0.858154, -0.630018, 0.313961, -0.884521, -0.343506, 0.295410, 0.132757, -0.002558, -0.002862, 0.999985, -0.004291, -0.003150, 0.001570, -175.271286, -76.062862, -79.274105, , , 0.000000, , , 
55529, , 12.030370, -0.945194, 0.124800, 1.468894, -2.740297, 1.848003, -0.486536, -0.232480, 0.286674, -0.897705, -0.334961, 0.295166, 0.120316, -0.009276, 0.001411, 0.999995, -0.002433, -0.001162, 0.001433, -174.898876, -75.889338, -79.958887, , , 0.000000, , , 
55530, , 10.279344, -0.795705, 0.067209, 1.208676, -2.320562, 0.160105, 0.103069, 0.151421, 0.239684, -0.895508, -0.337158, 0.295166, 0.102803, -0.007834, 0.000590, 0.999999, 0.000515, 0.000757, 0.001198, -174.260610, -75.962751, -80.556043, , , 0.000000, , , 
55531, , 9.014971, -0.336270, -0.015954, 0.667043, -2.053354, -1.053590, 0.584930, 0.171622, 0.153427, -0.893555, -0.332764, 0.295166, 0.090152, -0.003293, -0.000247, 0.999995, 0.002925, 0.000858, 0.000767, -173.436084, -76.024961, -81.069487, , , 0.000000, , , 
55532, , 8.938661, 0.271202, 0.468472, 0.195593, -2.642202, -1.258554, 0.895312, 0.026452, 0.071149, -0.895752, -0.332764, 0.299316, 0.089386, 0.002723, 0.004685, 0.999990, 0.004477, 0.000132, 0.000356, -172.751557, -76.035097, -81.246291, , , 0.000000, , , 
55533, , 9.451119, 0.385297, 1.251975, 0.318012, -3.529915, -0.953900, 0.746303, 0.007550, 0.006716, -0.897949, -0.330566, 0.303467, 0.094512, 0.003809, 0.012530, 0.999993, 0.003732, 0.000038, 0.000034, -172.238222, -76.016352, -81.340714, , , 0.000000, , , 
55534, , 10.066793, -0.569628, 0.969452, 1.187381, -3.143902, -0.257028, 0.584975, 0.017527, -0.054291, -0.893555, -0.332764, 0.307617, 0.100667, -0.005752, 0.009669, 0.999996, 0.002925, 0.000088, -0.000271, -172.019660, -76.030516, -81.220576, , , 0.000000, , , 
55535, , 10.217193, -0.382087, 1.141476, 1.072409, -3.391125, -0.159181, 0.427487, -0.024236, -0.074712, -0.895752, -0.330566, 0.309814, 0.102169, -0.003883, 0.011419, 0.999998, 0.002137, -0.000121, -0.000374, -171.907041, -76.000474, -81.066464, , , 0.000000, , , 
55536, , 10.615998, -0.690645, 0.455113, 1.195475, -2.758419, 0.402277, 0.352289, -0.029296, -0.075044, -0.891357, -0.328369, 0.303467, 0.106157, -0.006954, 0.004554, 0.999998, 0.001761, -0.000146, -0.000375, -171.883719, -75.989817, -80.882475, , , 0.000000, , , 
55537, , 11.223832, -0.695056, -0.332556, 0.997417, -2.168551, 1.181430, 0.468277, 0.073614, -0.062584, -0.897949, -0.328369, 0.309570, 0.112235, -0.006978, -0.003383, 0.999997, 0.002341, 0.000368, -0.000313, -171.683436, -76.022354, -80.799149, , , 0.000000, , , 
55538, , 11.333518, -0.320441, -0.464343, 0.605430, -2.169894, 1.308999, 0.604982, 0.121725, -0.059201, -0.897705, -0.332764, 0.309814, 0.113331, -0.003224, -0.004722, 0.999995, 0.003025, 0.000609, -0.000296, -171.429108, -76.096184, -80.704043, , , 0.000000, , , 
55539, , 11.442780, 0.393202, -0.802491, -0.173668, -2.087439, 1.472180, 0.777457, 0.146220, -0.079424, -0.897949, -0.324219, 0.311523, 0.114423, 0.003918, -0.008093, 0.999992, 0.003887, 0.000731, -0.000397, -171.071284, -76.174223, -80.571561, , , 0.000000, , , 
55540, , 11.214527, 1.193003, -1.165130, -1.057625, -1.929406, 1.309596, 0.860082, 0.304396, -0.123020, -0.893799, -0.322021, 0.307373, 0.112135, 0.011912, -0.011771, 0.999989, 0.004300, 0.001522, -0.000615, -170.748991, -76.357411, -80.396031, , , 0.000000, , , 
55541, , 9.890688, 1.632342, -1.304391, -1.576150, -1.605767, 0.042709, 0.644421, 0.468530, -0.163619, -0.898193, -0.322021, 0.305420, 0.098889, 0.016285, -0.013223, 0.999992, 0.003222, 0.002343, -0.000818, -170.521304, -76.630021, -80.232488, , , 0.000000, , , 
55542, , 9.007495, 1.210632, -1.879309, -1.401290, -0.703271, -0.665333, 0.258821, 0.415323, -0.192235, -0.895996, -0.322021, 0.299072, 0.090047, 0.012044, -0.018964, 0.999997, 0.001294, 0.002077, -0.000961, -170.667798, -76.882601, -79.929626, , , 0.000000, , , 
55543, , 8.358647, 0.473420, -2.239147, -0.849552, 0.044806, -1.188240, 0.236422, 0.292747, -0.195678, -0.895996, -0.319824, 0.299072, 0.083558, 0.004679, -0.022508, 0.999998, 0.001182, 0.001464, -0.000978, -170.836483, -77.065823, -79.603575, , , 0.000000, , , 
55544, , 7.912031, 1.091002, -1.543754, -1.216176, -0.678117, -1.798029, 0.214416, 0.198265, -0.180441, -0.900146, -0.326172, 0.307617, 0.079115, 0.010855, -0.015504, 0.999999, 0.001072, 0.000991, -0.000902, -171.080529, -77.194094, -79.227210, , , 0.000000, , , 
55545, , 7.785858, 0.535212, -2.075289, -0.868219, 0.034856, -1.784124, 0.030911, 0.112037, -0.177672, -0.893555, -0.326416, 0.303223, 0.077852, 0.005286, -0.020796, 0.999999, 0.000155, 0.000560, -0.000888, -171.406424, -77.264916, -78.859632, , , 0.000000, , , 
55546, , 7.619266, 1.023531, -1.811300, -1.237671, -0.324546, -2.018814, 0.031427, 0.053205, -0.164510, -0.891357, -0.332764, 0.301514, 0.076196, 0.010175, -0.018132, 1.000000, 0.000157, 0.000266, -0.000823, -171.779970, -77.308661, -78.458211, , , 0.000000, , , 
55547, , 7.464967, 0.843767, -1.659675, -1.013385, -0.365231, -2.194824, -0.154631, -0.002685, -0.148833, -0.895752, -0.330566, 0.305664, 0.074656, 0.008369, -0.016602, 0.999999, -0.000773, -0.000013, -0.000744, -172.232253, -77.311533, -78.072977, , , 0.000000, , , 
55548, , 7.609672, 0.882610, -1.901018, -1.110899, -0.184802, -2.000407, -0.088186, -0.051836, -0.140437, -0.895508, -0.337158, 0.305664, 0.076108, 0.008764, -0.018994, 1.000000, -0.000441, -0.000259, -0.000702, -172.652267, -77.292446, -77.694185, , , 0.000000, , , 
55549, , 7.619847, 1.640903, -1.831165, -1.788861, -0.507805, -2.024884, -0.087990, -0.104472, -0.121819, -0.897949, -0.330566, 0.299316, 0.076218, 0.016355, -0.018279, 1.000000, -0.000440, -0.000522, -0.000609, -173.031645, -77.229055, -77.324357, , , 0.000000, , , 
55550, , 7.639067, 1.268128, -2.444210, -1.624794, 0.171538, -1.858553, -0.215086, -0.140262, -0.122630, -0.895508, -0.334961, 0.303467, 0.076416, 0.012608, -0.024402, 0.999999, -0.001075, -0.000701, -0.000613, -173.501569, -77.157194, -76.968755, , , 0.000000, , , 
55551, , 7.781422, 2.009137, -1.900972, -2.121357, -0.605463, -1.854416, -0.449633, -0.134983, -0.125008, -0.891113, -0.339355, 0.299561, 0.077840, 0.020000, -0.019002, 0.999997, -0.002248, -0.000675, -0.000625, -174.070539, -77.082780, -76.628155, , , 0.000000, , , 
55552, , 7.643368, 1.025617, -2.433582, -1.352162, 0.238814, -1.843380, -0.577671, -0.155954, -0.104056, -0.893311, -0.343506, 0.299561, 0.076458, 0.010146, -0.024306, 0.999995, -0.002888, -0.000780, -0.000520, -174.695524, -76.999395, -76.326392, , , 0.000000, , , 
55553, , 7.761552, 1.241039, -1.956827, -1.374948, -0.295226, -1.835635, -0.665732, -0.161807, -0.103652, -0.886719, -0.339355, 0.301514, 0.077638, 0.012305, -0.019547, 0.999994, -0.003329, -0.000809, -0.000518, -175.371235, -76.910092, -76.000596, , , 0.000000, , , 
55554, , 7.739535, 0.737141, -2.229880, -0.960757, 0.123657, -1.782883, -0.815750, -0.135771, -0.081297, -0.893066, -0.343506, 0.301758, 0.077413, 0.007249, -0.022276, 0.999991, -0.004079, -0.000679, -0.000406, -176.060982, -76.835716, -75.772200, , , 0.000000, , , 
55555, , 7.907173, 0.794651, -2.127360, -0.952326, -0.022660, -1.641210, -0.824372, -0.073635, -0.058553, -0.893066, -0.347900, 0.297607, 0.079082, 0.007836, -0.021277, 0.999991, -0.004122, -0.000368, -0.000293, -176.661092, -76.786274, -75.637529, , , 0.000000, , , 
55556, , 7.863745, 0.136465, -2.415152, -0.391150, 0.456713, -1.607297, -0.777816, -0.087827, -0.043826, -0.892822, -0.354248, 0.295654, 0.078648, 0.001254, -0.024122, 0.999992, -0.003889, -0.000439, -0.000219, -177.222848, -76.737043, -75.518163, , , 0.000000, , , 
55557, , 7.888755, 0.595477, -2.145300, -0.730456, 0.064654, -1.648645, -0.646077, -0.083126, -0.026115, -0.888672, -0.350098, 0.289307, 0.078897, 0.005875, -0.021439, 0.999995, -0.003230, -0.000416, -0.000131, -177.655519, -76.683301, -75.426160, , , 0.000000, , , 
55558, , 7.871853, 0.624703, -2.280398, -0.781036, 0.192149, -1.632861, -0.863418, 0.007337, -0.004725, -0.890625, -0.356445, 0.287354, 0.078718, 0.006147, -0.022834, 0.999991, -0.004317, 0.000037, -0.000024, -178.159054, -76.687268, -75.416978, , , 0.000000, , , 
55559, , 7.863571, 0.494678, -1.936009, -0.547112, -0.078627, -1.718057, -0.925809, 0.062244, 0.028066, -0.890625, -0.356445, 0.285400, 0.078629, 0.004868, -0.019407, 0.999989, -0.004629, 0.000311, 0.000140, -178.603552, -76.721379, -75.499195, , , 0.000000, , , 
55560, , 7.819785, 0.696993, -1.672665, -0.665261, -0.355706, -1.821222, -0.768582, 0.115882, 0.047469, -0.890381, -0.369385, 0.283691, 0.078186, 0.006924, -0.016799, 0.999992, -0.003843, 0.000579, 0.000237, -178.920238, -76.786858, -75.626152, , , 0.000000, , , 
55561, , 7.592951, 0.647664, -2.598556, -0.863077, 0.593815, -1.829749, -0.761532, 0.153110, 0.056215, -0.892578, -0.367188, 0.277344, 0.075908, 0.006399, -0.026068, 0.999992, -0.003808, 0.000766, 0.000281, -179.230476, -76.868360, -75.729481, , , 0.000000, , , 
55562, , 7.352582, 0.996279, -3.459692, -1.419151, 1.387705, -1.870224, -0.695061, 0.143237, 0.069706, -0.896973, -0.364990, 0.277344, 0.073498, 0.009868, -0.034684, 0.999994, -0.003475, 0.000716, 0.000349, -179.450930, -76.949638, -75.911906, , , 0.000000, , , 
55563, , 7.210952, 1.538996, -3.448657, -1.934561, 1.292327, -2.012247, -0.857858, 0.071522, 0.110038, -0.894775, -0.367188, 0.266846, 0.072089, 0.015281, -0.034578, 0.999991, -0.004289, 0.000358, 0.000550, -179.681662, -76.982793, -76.145427, , , 0.000000, , , 
55564, , 7.682576, 1.008241, -3.562381, -1.399222, 1.444612, -1.525090, -1.162191, -0.075346, 0.137109, -0.892578, -0.364990, 0.270996, 0.076832, 0.009928, -0.035653, 0.999983, -0.005811, -0.000377, 0.000686, 179.993110, -76.939073, -76.494990, , , 0.000000, , , 
55565, , 8.364902, 0.829861, -3.335166, -1.111247, 1.125827, -0.908690, -1.130752, -0.174229, 0.165543, -0.896973, -0.369385, 0.260742, 0.083671, 0.008179, -0.033325, 0.999983, -0.005654, -0.000871, 0.000828, 179.747595, -76.831794, -76.894284, , , 0.000000, , , 
55566, , 9.145293, 0.597624, -3.670186, -0.890575, 1.314910, -0.068889, -1.143998, -0.278676, 0.190005, -0.894775, -0.371338, 0.260742, 0.091498, 0.005854, -0.036608, 0.999982, -0.005720, -0.001393, 0.000950, 179.560591, -76.672439, -77.375434, , , 0.000000, , , 
55567, , 9.981602, 0.660852, -3.873928, -0.925356, 1.285936, 0.797043, -0.928052, -0.348631, 0.174980, -0.894531, -0.373535, 0.264893, 0.099878, 0.006517, -0.038596, 0.999987, -0.004640, -0.001743, 0.000875, 179.442799, -76.469558, -77.780606, , , 0.000000, , , 
55568, , 10.587824, 0.931336, -3.935599, -1.140880, 1.124127, 1.407512, -1.114651, -0.404180, 0.109529, -0.892334, -0.375732, 0.262939, 0.105953, 0.009153, -0.039193, 0.999982, -0.005573, -0.002021, 0.000548, 179.076846, -76.238489, -78.061115, , , 0.000000, , , 
55569, , 11.223969, 0.206903, -4.356836, -0.432696, 1.481823, 2.129632, -0.930052, -0.389905, 0.014128, -0.894531, -0.380127, 0.256836, 0.112324, 0.001875, -0.043358, 0.999987, -0.004650, -0.001950, 0.000071, 178.569041, -76.003129, -78.067068, , , 0.000000, , , 
55570, , 11.405562, -0.207248, -4.763745, -0.040445, 1.865361, 2.407850, -0.756768, -0.367986, -0.044863, -0.887695, -0.386475, 0.261230, 0.114143, -0.002278, -0.047419, 0.999991, -0.003784, -0.001840, -0.000224, 178.059655, -75.791281, -77.988810, , , 0.000000, , , 
55571, , 11.168713, -0.275770, -5.115986, 0.001172, 2.234473, 2.270211, -0.466378, -0.309745, -0.079118, -0.894287, -0.382324, 0.263184, 0.111765, -0.002921, -0.050980, 0.999996, -0.002332, -0.001549, -0.000396, 177.588662, -75.605923, -77.750145, , , 0.000000, , , 
55572, , 10.529240, -0.520303, -5.532393, 0.175620, 2.798411, 1.758003, -0.349272, -0.285046, -0.072256, -0.889893, -0.384521, 0.263184, 0.105369, -0.005338, -0.055165, 0.999997, -0.001746, -0.001425, -0.000361, 177.258288, -75.440579, -77.615519, , , 0.000000, , , 
55573, , 9.927894, -0.374955, -5.405442, 0.049604, 2.765473, 1.154172, -0.249701, -0.358245, -0.056827, -0.887939, -0.384521, 0.259033, 0.099374, -0.003845, -0.053872, 0.999998, -0.001249, -0.001791, -0.000284, 177.011438, -75.222707, -77.484448, , , 0.000000, , , 
55574, , 9.907990, -0.029013, -4.672046, -0.148365, 1.961470, 0.963550, -0.296741, -0.654434, -0.049803, -0.887695, -0.386475, 0.267334, 0.099232, -0.000384, -0.046395, 0.999994, -0.001484, -0.003272, -0.000249, 176.811798, -74.846425, -77.453696, , , 0.000000, , , 
55575, , 11.826749, -0.515325, -4.201867, 0.552443, 1.012931, 2.695740, -0.409420, -0.941614, -0.077633, -0.879150, -0.386719, 0.280029, 0.118461, -0.005284, -0.041451, 0.999987, -0.002047, -0.004708, -0.000388, 176.508234, -74.299696, -77.369359, , , 0.000000, , , 
55576, , 13.760862, -0.870033, -3.253387, 1.202938, -0.462204, 4.295490, -0.062175, -0.918734, -0.131915, -0.874756, -0.388916, 0.290527, 0.137750, -0.008801, -0.031899, 0.999989, -0.000311, -0.004594, -0.000660, 176.325153, -73.769322, -77.215920, , , 0.000000, , , 
55577, , 15.011189, -0.627045, -2.388636, 1.209738, -1.782504, 5.246952, 0.525389, -0.750402, -0.201840, -0.874756, -0.391113, 0.296875, 0.150194, -0.006360, -0.023340, 0.999989, 0.002627, -0.003752, -0.001009, 176.314491, -73.312948, -76.896732, , , 0.000000, , , 
55578, , 14.918272, 0.171199, -2.366357, 0.454604, -1.997960, 5.153433, 0.891971, -0.487709, -0.286872, -0.872559, -0.388916, 0.302979, 0.149242, 0.001602, -0.023292, 0.999986, 0.004460, -0.002439, -0.001434, 176.343611, -73.023218, -76.393140, , , 0.000000, , , 
55579, , 14.370144, 0.986284, -2.309977, -0.337776, -2.102314, 4.619070, 0.876372, -0.330749, -0.339180, -0.872314, -0.395264, 0.307373, 0.143756, 0.009719, -0.022819, 0.999988, 0.004382, -0.001654, -0.001696, 176.239478, -72.806914, -75.750242, , , 0.000000, , , 
55580, , 13.623972, 1.284780, -1.835281, -0.563417, -2.440835, 3.765090, 0.611296, -0.362629, -0.326051, -0.870361, -0.388916, 0.313477, 0.136293, 0.012681, -0.018067, 0.999992, 0.003056, -0.001813, -0.001630, 176.037347, -72.586658, -75.171600, , , 0.000000, , , 
55581, , 12.244034, 1.032186, -1.133571, -0.255175, -2.688177, 2.227878, 0.264771, -0.191223, -0.273251, -0.865967, -0.391113, 0.315674, 0.122465, 0.010169, -0.011205, 0.999998, 0.001324, -0.000956, -0.001366, 175.697548, -72.457670, -74.634249, , , 0.000000, , , 
55582, , 10.779010, 0.411668, -0.950659, 0.298356, -2.318880, 0.760581, -0.125063, 0.024501, -0.217895, -0.870117, -0.395264, 0.313477, 0.107793, 0.003993, -0.009522, 0.999999, -0.000625, 0.000123, -0.001089, 175.229543, -72.461417, -74.218499, , , 0.000000, , , 
55583, , 10.119292, -0.312519, -1.121832, 0.947344, -1.816195, 0.165297, -0.357229, 0.096632, -0.182535, -0.867920, -0.399658, 0.317871, 0.101185, -0.003238, -0.011261, 0.999998, -0.001786, 0.000483, -0.000913, 174.666189, -72.502685, -73.825107, , , 0.000000, , , 
55584, , 10.185171, 0.180815, -0.120119, 0.662369, -2.857563, -0.056643, -0.304372, 0.077849, -0.165730, -0.865723, -0.399658, 0.309570, 0.101853, 0.001722, -0.001243, 0.999998, -0.001522, 0.000389, -0.000829, 174.178810, -72.537489, -73.496901, , , 0.000000, , , 
55585, , 10.474972, 1.228015, 1.163939, -0.104110, -4.337608, -0.129603, -0.502789, -0.016034, -0.148218, -0.868164, -0.395264, 0.309326, 0.104758, 0.012232, 0.011617, 0.999997, -0.002514, -0.000080, -0.000741, 173.610040, -72.512748, -73.178275, , , 0.000000, , , 
55586, , 10.816976, 1.166315, 0.581699, -0.102390, -3.875619, 0.369391, -0.510301, -0.085468, -0.109375, -0.861084, -0.410400, 0.305664, 0.108174, 0.011619, 0.005834, 0.999997, -0.002552, -0.000427, -0.000547, 173.139157, -72.456503, -72.991025, , , 0.000000, , , 
55587, , 10.927031, 1.405013, 0.101045, -0.394271, -3.501341, 0.626155, -0.371446, -0.097335, -0.082124, -0.863525, -0.404053, 0.303467, 0.109276, 0.014007, 0.001038, 0.999998, -0.001857, -0.000487, -0.000411, 172.786669, -72.395921, -72.827467, , , 0.000000, , , 
55588, , 10.978581, 1.121809, -0.190952, -0.148962, -3.193886, 0.751452, -0.369058, -0.065115, -0.063878, -0.856934, -0.410400, 0.303467, 0.109790, 0.011180, -0.001894, 0.999998, -0.001845, -0.000326, -0.000319, 172.476833, -72.353865, -72.724173, , , 0.000000, , , 
55589, , 11.109758, 0.530673, -0.492446, 0.406767, -2.844231, 0.943507, -0.461268, -0.037280, -0.040510, -0.867676, -0.408203, 0.303467, 0.111100, 0.005273, -0.004916, 0.999997, -0.002306, -0.000186, -0.000203, 172.122849, -72.334586, -72.620444, , , 0.000000, , , 
55590, , 11.308553, -0.099849, -0.815072, 1.002742, -2.487702, 1.203824, -0.611535, 0.044583, -0.008899, -0.867676, -0.410400, 0.303467, 0.113084, -0.001028, -0.008173, 0.999995, -0.003058, 0.000223, -0.000044, 171.746060, -72.358814, -72.592671, , , 0.000000, , , 
55591, , 10.882220, -0.917569, -1.235298, 1.713825, -1.823198, 0.889151, -0.690570, 0.145152, 0.035035, -0.863281, -0.410400, 0.295166, 0.108815, -0.009199, -0.012400, 0.999994, -0.003453, 0.000726, 0.000175, 171.372755, -72.449165, -72.582444, , , 0.000000, , , 
55592, , 9.996873, -1.257511, -1.615899, 1.916698, -1.141611, 0.144868, -0.560381, 0.236013, 0.087329, -0.867676, -0.414795, 0.291260, 0.099955, -0.012577, -0.016242, 0.999995, -0.002802, 0.001180, 0.000437, 171.144244, -72.590096, -72.679422, , , 0.000000, , , 
55593, , 9.331376, -1.299448, -1.926584, 1.851837, -0.628583, -0.397253, -0.372191, 0.320547, 0.135840, -0.863281, -0.416748, 0.287109, 0.093292, -0.012967, -0.019391, 0.999997, -0.001861, 0.001603, 0.000679, 171.078332, -72.792393, -72.809761, , , 0.000000, , , 
55594, , 8.724656, -0.892570, -2.120361, 1.361406, -0.313354, -0.898621, -0.250757, 0.254137, 0.157954, -0.869873, -0.414795, 0.280762, 0.087227, -0.008883, -0.021303, 0.999998, -0.001254, 0.001271, 0.000790, 171.152607, -72.949928, -73.037759, , , 0.000000, , , 
55595, , 8.763506, -0.375709, -1.652751, 0.901729, -0.825136, -0.970868, -0.180786, 0.199291, 0.185849, -0.865479, -0.412598, 0.286865, 0.087622, -0.003691, -0.016611, 0.999999, -0.000904, 0.000996, 0.000929, 171.313917, -73.088653, -73.286677, , , 0.000000, , , 
55596, , 8.781244, -0.371193, -1.327677, 0.924756, -1.125318, -1.044038, -0.324892, 0.191410, 0.200329, -0.867676, -0.412598, 0.280762, 0.087803, -0.003646, -0.013355, 0.999998, -0.001624, 0.000957, 0.001002, 171.448899, -73.214000, -73.622153, , , 0.000000, , , 
55597, , 8.674431, -0.860492, -1.774917, 1.330819, -0.586694, -1.036515, -0.294069, 0.205913, 0.187179, -0.867676, -0.414551, 0.272461, 0.086734, -0.008550, -0.017826, 0.999998, -0.001470, 0.001030, 0.000936, 171.563736, -73.348976, -73.900870, , , 0.000000, , , 
55598, , 8.341530, -0.351792, -1.528695, 0.817727, -0.785694, -1.401043, -0.162882, 0.210885, 0.168675, -0.874023, -0.412598, 0.268066, 0.083402, -0.003460, -0.015372, 0.999999, -0.000814, 0.001054, 0.000843, 171.733176, -73.482248, -74.174965, , , 0.000000, , , 
55599, , 8.130223, -0.734985, -1.860194, 1.129588, -0.341767, -1.523644, -0.139539, 0.209651, 0.130715, -0.869873, -0.408203, 0.270020, 0.081287, -0.007310, -0.018682, 0.999999, -0.000698, 0.001048, 0.000654, 171.816515, -73.625241, -74.316429, , , 0.000000, , , 
55600, , 7.779262, -0.800168, -1.813937, 1.161759, -0.265991, -1.873727, -0.046825, 0.234887, 0.138085, -0.876465, -0.410400, 0.263916, 0.077777, -0.007952, -0.018229, 0.999999, -0.000234, 0.001174, 0.000690, 171.993148, -73.769341, -74.528355, , , 0.000000, , , 
55601, , 7.560250, -0.944048, -2.064059, 1.246440, 0.069951, -2.018433, -0.095958, 0.249657, 0.141160, -0.882812, -0.410156, 0.265869, 0.075583, -0.009397, -0.020730, 0.999999, -0.000480, 0.001248, 0.000706, 172.133198, -73.934200, -74.709226, , , 0.000000, , , 
55602, , 7.184204, -1.066505, -2.155899, 1.316461, 0.290905, -2.357462, 0.029553, 0.240448, 0.164704, -0.878662, -0.408203, 0.263916, 0.071825, -0.010603, -0.021647, 0.999999, 0.000148, 0.001202, 0.000824, 172.412134, -74.083146, -74.981725, , , 0.000000, , , 
55603, , 7.390052, -1.109492, -1.870932, 1.391195, -0.010513, -2.235838, 0.125649, 0.258187, 0.180116, -0.878662, -0.408203, 0.263916, 0.073886, -0.011017, -0.018812, 0.999999, 0.000628, 0.001291, 0.000901, 172.771068, -74.252574, -75.236215, , , 0.000000, , , 
55604, , 7.341672, -0.757824, -1.367218, 1.083203, -0.508664, -2.402451, 0.105532, 0.266920, 0.181017, -0.883057, -0.399414, 0.261475, 0.073405, -0.007505, -0.013774, 0.999999, 0.000528, 0.001335, 0.000905, 173.131910, -74.416839, -75.548129, , , 0.000000, , , 
55605, , 7.344386, -1.156497, -1.877486, 1.396040, 0.054116, -2.272760, 0.269609, 0.285291, 0.174543, -0.880859, -0.406006, 0.261719, 0.073427, -0.011475, -0.018895, 0.999998, 0.001348, 0.001426, 0.000873, 173.578332, -74.597940, -75.820198, , , 0.000000, , , 
55606, , 7.391820, -0.760829, -1.663729, 1.013752, -0.195816, -2.268170, 0.357669, 0.294143, 0.153424, -0.885254, -0.397461, 0.263428, 0.073899, -0.007522, -0.016759, 0.999997, 0.001788, 0.001471, 0.000767, 174.036224, -74.774732, -76.082414, , , 0.000000, , , 
55607, , 7.145256, -0.576545, -1.371512, 0.835703, -0.416710, -2.574177, 0.277221, 0.287852, 0.132729, -0.883301, -0.390869, 0.257080, 0.071437, -0.005699, -0.013826, 0.999998, 0.001386, 0.001439, 0.000664, 174.410074, -74.949426, -76.270554, , , 0.000000, , , 
55608, , 7.354769, -1.035801, -2.209137, 1.173926, 0.420432, -2.164756, 0.301205, 0.309350, 0.104667, -0.883301, -0.395264, 0.255127, 0.073519, -0.010286, -0.022221, 0.999998, 0.001506, 0.001547, 0.000523, 174.743502, -75.131284, -76.436972, , , 0.000000, , , 
55609, , 7.218732, -1.145833, -2.434588, 1.222578, 0.713990, -2.239996, 0.549820, 0.340193, 0.064451, -0.885498, -0.388672, 0.261230, 0.072149, -0.011368, -0.024500, 0.999995, 0.002749, 0.001701, 0.000322, 175.146142, -75.336722, -76.513208, , , 0.000000, , , 
55610, , 7.177897, -0.894923, -2.223909, 0.978898, 0.512771, -2.326195, 0.758262, 0.342663, 0.035801, -0.892090, -0.390869, 0.257080, 0.071742, -0.008852, -0.022396, 0.999991, 0.003791, 0.001713, 0.000179, 175.598408, -75.533810, -76.531531, , , 0.000000, , , 
55611, , 7.302769, -1.325177, -2.642297, 1.320396, 0.982538, -2.108190, 0.863519, 0.323214, -0.001900, -0.887695, -0.386475, 0.259033, 0.072985, -0.013138, -0.026598, 0.999989, 0.004318, 0.001616, -0.000009, 176.061763, -75.720663, -76.473218, , , 0.000000, , , 
55612, , 7.424380, -0.847407, -2.457355, 0.856982, 0.726828, -2.027107, 1.022760, 0.335530, -0.012934, -0.887939, -0.384521, 0.260986, 0.074202, -0.008353, -0.024741, 0.999986, 0.005114, 0.001678, -0.000065, 176.569742, -75.911756, -76.392640, , , 0.000000, , , 
55613, , 7.613819, -0.770150, -2.071340, 0.829405, 0.329180, -1.935034, 0.929047, 0.328863, -0.007399, -0.892090, -0.388672, 0.263184, 0.076104, -0.007608, -0.020874, 0.999988, 0.004645, 0.001644, -0.000037, 177.063918, -76.100828, -76.335852, , , 0.000000, , , 
55614, , 7.771187, -0.605199, -1.932235, 0.677819, 0.157959, -1.812272, 0.826356, 0.355088, 0.006268, -0.892334, -0.380127, 0.265137, 0.077678, -0.005969, -0.019485, 0.999990, 0.004132, 0.001775, 0.000031, 177.512903, -76.303916, -76.310514, , , 0.000000, , , 
55615, , 7.971280, -0.735309, -2.123107, 0.757903, 0.348703, -1.572940, 0.712643, 0.339286, 0.010964, -0.892334, -0.375732, 0.262939, 0.079677, -0.007273, -0.021392, 0.999992, 0.003563, 0.001696, 0.000055, 177.927773, -76.495962, -76.282662, , , 0.000000, , , 
55616, , 8.713414, -1.182270, -2.872227, 1.062222, 1.018646, -0.680061, 0.872291, 0.384445, 0.001915, -0.894531, -0.377930, 0.262939, 0.087079, -0.011696, -0.028941, 0.999989, 0.004361, 0.001922, 0.000010, 178.402568, -76.715811, -76.256815, , , 0.000000, , , 
55617, , 9.203840, -0.836612, -3.007525, 0.683945, 1.006910, -0.170394, 1.154534, 0.455856, -0.036535, -0.890381, -0.371582, 0.264893, 0.091968, -0.008208, -0.030333, 0.999981, 0.005773, 0.002279, -0.000183, 178.980086, -76.975063, -76.147303, , , 0.000000, , , 
55618, , 9.562085, -0.618491, -3.883605, 0.251780, 1.757105, 0.372947, 1.361796, 0.470327, -0.077869, -0.901123, -0.371338, 0.264893, 0.095527, -0.005956, -0.039102, 0.999974, 0.006809, 0.002352, -0.000389, 179.550320, -77.243568, -75.931672, , , 0.000000, , , 
55619, , 9.506569, -0.033808, -4.120469, -0.432166, 1.890619, 0.365363, 1.435614, 0.392308, -0.122968, -0.896973, -0.369385, 0.269043, 0.094985, -0.000100, -0.041392, 0.999972, 0.007178, 0.001962, -0.000615, -179.908380, -77.464371, -75.620490, , , 0.000000, , , 
55620, , 9.886516, -0.433073, -5.010904, -0.304489, 2.774732, 0.922658, 1.482161, 0.263504, -0.127859, -0.896973, -0.364990, 0.273193, 0.098796, -0.004022, -0.050270, 0.999971, 0.007411, 0.001318, -0.000639, -179.386482, -77.615379, -75.285063, , , 0.000000, , , 
55621, , 10.053656, -0.570123, -6.035741, -0.514773, 3.748287, 1.301076, 1.722297, 0.156709, -0.074378, -0.895020, -0.354248, 0.279053, 0.100487, -0.005218, -0.060482, 0.999963, 0.008611, 0.000784, -0.000372, -178.556062, -77.697619, -75.100046, , , 0.000000, , , 
55622, , 9.914896, 0.015384, -5.969547, -1.166900, 3.537539, 1.144691, 1.740485, 0.049179, 0.005037, -0.895264, -0.349854, 0.291504, 0.099134, 0.000676, -0.059715, 0.999962, 0.008702, 0.000246, 0.000025, -177.541257, -77.725211, -75.117790, , , 0.000000, , , 
55623, , 9.879668, 0.989280, -5.297652, -1.988995, 2.581395, 0.959092, 1.409085, -0.232348, 0.093301, -0.897217, -0.349854, 0.295654, 0.098853, 0.010311, -0.052790, 0.999974, 0.007045, -0.001162, 0.000467, -176.451432, -77.572044, -75.407183, , , 0.000000, , , 
55624, , 10.370256, 1.456061, -4.173587, -2.109048, 1.224863, 1.193325, 0.614292, -0.471855, 0.190756, -0.897461, -0.343506, 0.297607, 0.103787, 0.014787, -0.041446, 0.999992, 0.003071, -0.002359, 0.000954, -175.693361, -77.294275, -75.822952, , , 0.000000, , , 
55625, , 10.939247, 1.128975, -3.627151, -1.608147, 0.619769, 1.638386, -0.274083, -0.746741, 0.272333, -0.888916, -0.343506, 0.303711, 0.109511, 0.011389, -0.035878, 0.999991, -0.001370, -0.003734, 0.001362, -175.275143, -76.839951, -76.398177, , , 0.000000, , , 
55626, , 12.200562, -0.002196, -3.679772, -0.464802, 0.647877, 2.905711, -0.786309, -0.854394, 0.280447, -0.890869, -0.345703, 0.316406, 0.122161, 0.000006, -0.036276, 0.999982, -0.003932, -0.004272, 0.001402, -175.224003, -76.338155, -76.913554, , , 0.000000, , , 
55627, , 14.247804, -0.764996, -3.430987, 0.466869, 0.065956, 4.854740, -0.375244, -0.730383, 0.232683, -0.888916, -0.339355, 0.314209, 0.142611, -0.007548, -0.033775, 0.999991, -0.001876, -0.003652, 0.001163, -175.025056, -75.890524, -77.335342, , , 0.000000, , , 
55628, , 15.287808, 0.358009, -2.205929, -0.180211, -1.752359, 5.536821, -0.072937, -0.568748, 0.218104, -0.891113, -0.339355, 0.312012, 0.152936, 0.003739, -0.021626, 0.999995, -0.000365, -0.002844, 0.001091, -174.692447, -75.554042, -77.721279, , , 0.000000, , , 
55629, , 15.208350, 0.601449, -2.087012, -0.382915, -2.010045, 5.413069, -0.719058, -0.609517, 0.244669, -0.882568, -0.339355, 0.318359, 0.152139, 0.006127, -0.020428, 0.999988, -0.003595, -0.003048, 0.001223, -174.655251, -75.184297, -78.183537, , , 0.000000, , , 
55630, , 15.107375, -0.315875, -3.229767, 0.178601, -0.771857, 5.618931, -1.199953, -0.833273, 0.292012, -0.886719, -0.339355, 0.316162, 0.151211, -0.003129, -0.031649, 0.999972, -0.006000, -0.004166, 0.001460, -174.885155, -74.692836, -78.657015, , , 0.000000, , , 
55631, , 15.040588, -1.244116, -3.474116, 1.029056, -0.406523, 5.634337, -1.206738, -0.851308, 0.338283, -0.888916, -0.339355, 0.322510, 0.150573, -0.012393, -0.034026, 0.999971, -0.006034, -0.004257, 0.001691, -175.010284, -74.184746, -79.251327, , , 0.000000, , , 
55632, , 13.708832, -2.959631, -1.236596, 3.209088, -1.775213, 3.780340, -0.625561, -0.402509, 0.382570, -0.886963, -0.337158, 0.324463, 0.137169, -0.029372, -0.011998, 0.999991, -0.003128, -0.002013, 0.001913, -174.676671, -73.934558, -79.970595, , , 0.000000, , , 
55633, , 11.869335, -2.495136, 2.800898, 3.691118, -5.175922, 0.889522, 0.953907, -0.124282, 0.366861, -0.886963, -0.334961, 0.334961, 0.118722, -0.024867, 0.027964, 0.999987, 0.004770, -0.000621, 0.001834, -173.384097, -73.838451, -80.739258, , , 0.000000, , , 
55634, , 10.241179, 1.821453, 3.684864, -0.305542, -6.704570, -1.052948, 0.927109, 0.154518, 0.250847, -0.887207, -0.326416, 0.330566, 0.102417, 0.018172, 0.036854, 0.999988, 0.004636, 0.000773, 0.001254, -172.321276, -73.907599, -81.292203, , , 0.000000, , , 
55635, , 9.026496, 0.486821, -1.041780, -0.388560, -1.632005, -0.869233, -0.512957, 0.410721, 0.185454, -0.884766, -0.332764, 0.326416, 0.090239, 0.004925, -0.010616, 0.999994, -0.002565, 0.002054, 0.000927, -172.100975, -74.121862, -81.814236, , , 0.000000, , , 
55636, , 8.293495, -2.091151, -3.016266, 1.497388, 1.125959, -0.938981, 0.605074, 0.364906, 0.056396, -0.891602, -0.324219, 0.328369, 0.082886, -0.020796, -0.030377, 0.999994, 0.003025, 0.001825, 0.000282, -171.535438, -74.323357, -82.041170, , , 0.000000, , , 
55637, , 9.493219, -0.461070, 0.060246, 0.814293, -2.460143, -0.668180, 1.736925, 0.092675, -0.050383, -0.882812, -0.324219, 0.334717, 0.094931, -0.004639, 0.000518, 0.999962, 0.008685, 0.000463, -0.000252, -170.588449, -74.376080, -81.981406, , , 0.000000, , , 
55638, , 10.946224, 0.817290, -0.025674, -0.376579, -3.124390, 0.703242, 0.633781, 0.250180, -0.068069, -0.887207, -0.319824, 0.332275, 0.109465, 0.008137, -0.000368, 0.999994, 0.003169, 0.001251, -0.000340, -170.277622, -74.523020, -81.926599, , , 0.000000, , , 
55639, , 10.269583, -1.754083, -1.006505, 1.746069, -1.240017, 0.432679, 0.183009, 0.500249, -0.034975, -0.887451, -0.313477, 0.325928, 0.102667, -0.017549, -0.010338, 0.999996, 0.000915, 0.002501, -0.000175, -170.054249, -74.802899, -82.047387, , , 0.000000, , , 
55640, , 10.599833, -1.328558, 1.674086, 2.160540, -3.877755, 0.047289, 0.642092, 0.078455, -0.032711, -0.893799, -0.322021, 0.326172, 0.106003, -0.013356, 0.016656, 0.999995, 0.003210, 0.000392, -0.000164, -169.725096, -74.849499, -82.006702, , , 0.000000, , , 
55641, , 11.432262, -1.147635, 0.159929, 1.551299, -2.737627, 1.238922, 0.610909, 0.205488, -0.025775, -0.894043, -0.309082, 0.330078, 0.114323, -0.011496, 0.001447, 0.999995, 0.003055, 0.001027, -0.000129, -169.316377, -74.969673, -82.059592, , , 0.000000, , , 
55642, , 10.756634, -0.619005, -1.458587, 0.501310, -1.219892, 0.979728, 0.898579, 0.293324, -0.000758, -0.895996, -0.315674, 0.332275, 0.107545, -0.006124, -0.014771, 0.999989, 0.004493, 0.001467, -0.000004, -168.682822, -75.133764, -82.181884, , , 0.000000, , , 
55643, , 10.179842, 0.579115, -1.548793, -0.703983, -1.358992, 0.386374, 1.110275, 0.161555, -0.012981, -0.896484, -0.300537, 0.335938, 0.101786, 0.005871, -0.015538, 0.999984, 0.005551, 0.000808, -0.000065, -167.957653, -75.224294, -82.254784, , , 0.000000, , , 
55644, , 10.183994, 1.497049, -1.513516, -1.571976, -1.691197, 0.331984, 1.013263, 0.246961, -0.057737, -0.891846, -0.306885, 0.329834, 0.101826, 0.015018, -0.015185, 0.999986, 0.005066, 0.001235, -0.000289, -167.384929, -75.368587, -82.246075, , , 0.000000, , , 
55645, , 9.219155, 1.826119, -1.597238, -1.956088, -1.468076, -0.598726, 0.574729, 0.464074, -0.099898, -0.896240, -0.304932, 0.329834, 0.092163, 0.018261, -0.016134, 0.999993, 0.002874, 0.002320, -0.000499, -166.993906, -75.639814, -82.299996, , , 0.000000, , , 
55646, , 8.017871, 1.111653, -2.128715, -1.520902, -0.410683, -1.592497, 0.170575, 0.460542, -0.146439, -0.898682, -0.302734, 0.315186, 0.080138, 0.011076, -0.021462, 0.999997, 0.000853, 0.002303, -0.000732, -166.984071, -75.914755, -82.208671, , , 0.000000, , , 
55647, , 7.522800, 0.306793, -2.233947, -0.826154, 0.117376, -2.003668, 0.313818, 0.353034, -0.193328, -0.900635, -0.304688, 0.323730, 0.075191, 0.003030, -0.022467, 0.999997, 0.001569, 0.001765, -0.000967, -167.015252, -76.145363, -81.978824, , , 0.000000, , , 
55648, , 7.173155, 0.697464, -1.532495, -0.955200, -0.546539, -2.527223, 0.406242, 0.352247, -0.212349, -0.894043, -0.306885, 0.332031, 0.071712, 0.006930, -0.015437, 0.999996, 0.002031, 0.001761, -0.001062, -167.082001, -76.368274, -81.669820, , , 0.000000, , , 
55649, , 6.840192, 0.744682, -1.244898, -0.906216, -0.722002, -2.917038, 0.165470, 0.343356, -0.210890, -0.896240, -0.309082, 0.315430, 0.068388, 0.007385, -0.012560, 0.999998, 0.000827, 0.001717, -0.001054, -167.266948, -76.582677, -81.365858, , , 0.000000, , , 
55650, , 6.522809, 0.214464, -1.391129, -0.472198, -0.304865, -3.163452, 0.157752, 0.253486, -0.190280, -0.898438, -0.306885, 0.315430, 0.065212, 0.002094, -0.013992, 0.999998, 0.000789, 0.001267, -0.000951, -167.491110, -76.747126, -81.041888, , , 0.000000, , , 
55651, , 6.442460, 0.629539, -1.397962, -0.861966, -0.415217, -3.259786, 0.305745, 0.155707, -0.156940, -0.894043, -0.306885, 0.321533, 0.064419, 0.006266, -0.014020, 0.999998, 0.001529, 0.000779, -0.000785, -167.580177, -76.859405, -80.761782, , , 0.000000, , , 
55652, , 6.416854, 0.709041, -1.822679, -1.088949, -0.047364, -3.193559, 0.178994, 0.066667, -0.125958, -0.896240, -0.306885, 0.319580, 0.064167, 0.007066, -0.018242, 0.999999, 0.000895, 0.000333, -0.000630, -167.744718, -76.911029, -80.486802, , , 0.000000, , , 
55653, , 6.589134, 1.467996, -1.434705, -1.642113, -0.714461, -3.147623, 0.219605, -0.045095, -0.097774, -0.896240, -0.306885, 0.321533, 0.065902, 0.014663, -0.014316, 0.999999, 0.001098, -0.000225, -0.000489, -167.846564, -76.894542, -80.249297, , , 0.000000, , , 
55654, , 7.021570, 1.986789, -1.084904, -1.972079, -1.323988, -2.828079, 0.093729, -0.106655, -0.068550, -0.900635, -0.306885, 0.315430, 0.070228, 0.019849, -0.010802, 1.000000, 0.000469, -0.000533, -0.000343, -168.011704, -76.841833, -80.023808, , , 0.000000, , , 
55655, , 7.432124, 1.828810, -1.363341, -1.906448, -1.111695, -2.358206, -0.113309, -0.084004, -0.047463, -0.889648, -0.311279, 0.321777, 0.074331, 0.018263, -0.013613, 1.000000, -0.000567, -0.000420, -0.000237, -168.193623, -76.803456, -79.891882, , , 0.000000, , , 
55656, , 7.709412, 2.222665, -1.301574, -2.233565, -1.371500, -2.118563, -0.288909, 0.014365, -0.033808, -0.891846, -0.313477, 0.319580, 0.077097, 0.022195, -0.013053, 0.999999, -0.001445, 0.000072, -0.000169, -168.432232, -76.814250, -79.816021, , , 0.000000, , , 
55657, , 7.724860, 1.333503, -1.684789, -1.541071, -0.689730, -1.974350, -0.704004, 0.076898, -0.030347, -0.894043, -0.309082, 0.319580, 0.077244, 0.013264, -0.016924, 0.999994, -0.003520, 0.000384, -0.000152, -168.873427, -76.861127, -79.777601, , , 0.000000, , , 
55658, , 8.046391, 0.448183, -2.280454, -0.909387, 0.111343, -1.487644, -0.315757, 0.085991, -0.048343, -0.893799, -0.317627, 0.307373, 0.080455, 0.004426, -0.022846, 0.999999, -0.001579, 0.000430, -0.000242, -169.129953, -76.913551, -79.699137, , , 0.000000, , , 
55659, , 8.052655, 0.496437, -1.992894, -0.844032, -0.154321, -1.546666, -0.480070, 0.100175, -0.054073, -0.894043, -0.313477, 0.311279, 0.080518, 0.004895, -0.019981, 0.999997, -0.002400, 0.000501, -0.000270, -169.473249, -76.980029, -79.627069, , , 0.000000, , , 
55660, , 8.070906, -0.369608, -2.547717, -0.218765, 0.664644, -1.370095, -0.422652, 0.112374, -0.048761, -0.895996, -0.317627, 0.307373, 0.080694, -0.003770, -0.025515, 0.999998, -0.002113, 0.000562, -0.000244, -169.783418, -77.047149, -79.556420, , , 0.000000, , , 
55661, , 8.041448, -0.199380, -2.287335, -0.280078, 0.388598, -1.463612, -0.400381, 0.138955, -0.041992, -0.898193, -0.317627, 0.303223, 0.080398, -0.002057, -0.022925, 0.999998, -0.002002, 0.000695, -0.000210, -170.030760, -77.133597, -79.535402, , , 0.000000, , , 
55662, , 7.784731, -0.539690, -2.611734, -0.075768, 0.870143, -1.630294, -0.274602, 0.099831, -0.029861, -0.898193, -0.317627, 0.305176, 0.077833, -0.005444, -0.026149, 0.999999, -0.001373, 0.000499, -0.000149, -170.217956, -77.191620, -79.503890, , , 0.000000, , , 
55663, , 8.169748, 0.502530, -2.377481, -0.955585, 0.226794, -1.345980, -0.216873, 0.120339, -0.009685, -0.898193, -0.317627, 0.303223, 0.081683, 0.004996, -0.023829, 0.999999, -0.001084, 0.000602, -0.000048, -170.280155, -77.265385, -79.559654, , , 0.000000, , , 
55664, , 7.932423, 0.582667, -2.821977, -1.189877, 0.673874, -1.484636, -0.380279, 0.195306, 0.028914, -0.898193, -0.319824, 0.301025, 0.079296, 0.005784, -0.028308, 0.999998, -0.001901, 0.000977, 0.000145, -170.340526, -77.371627, -79.720189, , , 0.000000, , , 
55665, , 7.579850, 0.993231, -2.977208, -1.642360, 0.773032, -1.812097, -0.384767, 0.169529, 0.068538, -0.898193, -0.319824, 0.299072, 0.075770, 0.009901, -0.029855, 0.999998, -0.001924, 0.000848, 0.000343, -170.280654, -77.462510, -80.001533, , , 0.000000, , , 
55666, , 7.330486, 1.420169, -2.954422, -2.043206, 0.678056, -2.076600, -0.609364, 0.003106, 0.111435, -0.895752, -0.324219, 0.299072, 0.073297, 0.014152, -0.029589, 0.999995, -0.003047, 0.000016, 0.000557, -170.344150, -77.452219, -80.293211, , , 0.000000, , , 
55667, , 7.325918, 1.590765, -3.097291, -2.240469, 0.762716, -2.054378, -0.893055, -0.188432, 0.146838, -0.898193, -0.322021, 0.294922, 0.073277, 0.015823, -0.030975, 0.999989, -0.004465, -0.000942, 0.000734, -170.551336, -77.329910, -80.603729, , , 0.000000, , , 
55668, , 8.049552, 0.995348, -3.842524, -1.865008, 1.481824, -1.159546, -1.096364, -0.331606, 0.187971, -0.895996, -0.324219, 0.294922, 0.080550, 0.009819, -0.038346, 0.999983, -0.005482, -0.001658, 0.000940, -170.844645, -77.123667, -80.946107, , , 0.000000, , , 
55669, , 8.707021, 0.875130, -3.889234, -1.715231, 1.403578, -0.496460, -0.897862, -0.357514, 0.203811, -0.897949, -0.326172, 0.292969, 0.087131, 0.008666, -0.038776, 0.999988, -0.004489, -0.001788, 0.001019, -170.982141, -76.902348, -81.334247, , , 0.000000, , , 
55670, , 9.237575, 0.896720, -3.519643, -1.583474, 0.913135, -0.056485, -0.961914, -0.405364, 0.206840, -0.891602, -0.326416, 0.299072, 0.092438, 0.008894, -0.035052, 0.999986, -0.004810, -0.002027, 0.001034, -171.186545, -76.653168, -81.689412, , , 0.000000, , , 
55671, , 10.074070, 0.787855, -3.381345, -1.383067, 0.594494, 0.735990, -1.170150, -0.498917, 0.171368, -0.897949, -0.326172, 0.292969, 0.100818, 0.007768, -0.033608, 0.999979, -0.005851, -0.002495, 0.000857, -171.625249, -76.353247, -81.932462, , , 0.000000, , , 
55672, , 11.044651, -0.111932, -3.971987, -0.610651, 1.129552, 1.854548, -1.137704, -0.458785, 0.079876, -0.895752, -0.332764, 0.292969, 0.110538, -0.001300, -0.039459, 0.999981, -0.005688, -0.002294, 0.000399, -172.241000, -76.085170, -81.968600, , , 0.000000, , , 
55673, , 11.478697, -1.192506, -4.614414, 0.319563, 1.869878, 2.470488, -0.603629, -0.437317, -0.035700, -0.897705, -0.334961, 0.297363, 0.114885, -0.012084, -0.045857, 0.999993, -0.003018, -0.002187, -0.000179, -172.785327, -75.842395, -81.762452, , , 0.000000, , , 
55674, , 11.239857, -1.477091, -5.076477, 0.498912, 2.389627, 2.366286, 0.077651, -0.365836, -0.138547, -0.891113, -0.337158, 0.305664, 0.112481, -0.014829, -0.050565, 0.999998, 0.000388, -0.001829, -0.000693, -173.149938, -75.642687, -81.339288, , , 0.000000, , , 
55675, , 10.194406, -1.120315, -5.725069, -0.038759, 3.121385, 1.510421, 0.306938, -0.324921, -0.185651, -0.886963, -0.330566, 0.305664, 0.102027, -0.011210, -0.057102, 0.999997, 0.001535, -0.001625, -0.000928, -173.465952, -75.466814, -80.826299, , , 0.000000, , , 
55676, , 8.980054, -0.719338, -6.520175, -0.670239, 4.017892, 0.535192, 0.102262, -0.464956, -0.160240, -0.886719, -0.339355, 0.310059, 0.089946, -0.007232, -0.064996, 0.999997, 0.000511, -0.002325, -0.000801, -173.866460, -75.210750, -80.350665, , , 0.000000, , , 
55677, , 8.836593, -0.417011, -7.033357, -1.075238, 4.393797, 0.544204, -0.131178, -0.722939, -0.106133, -0.884766, -0.334961, 0.320312, 0.088617, -0.004263, -0.070011, 0.999993, -0.000656, -0.003615, -0.000531, -174.318981, -74.800501, -79.969676, , , 0.000000, , , 
55678, , 10.152662, 0.410804, -6.279954, -1.573937, 3.053050, 1.627759, -0.138440, -0.875127, -0.071615, -0.878174, -0.339355, 0.326660, 0.101802, 0.004028, -0.062357, 0.999990, -0.000692, -0.004376, -0.000358, -174.717324, -74.303861, -79.637595, , , 0.000000, , , 
55679, , 12.049282, 0.859319, -4.357538, -1.362560, 0.544947, 2.944939, -0.201898, -0.941552, -0.087060, -0.880371, -0.339355, 0.328857, 0.120700, 0.008497, -0.043016, 0.999988, -0.001009, -0.004708, -0.000435, -175.165058, -73.760164, -79.303125, , , 0.000000, , , 
55680, , 14.076558, 0.321233, -2.688575, -0.244634, -1.533718, 4.437475, -0.230750, -1.022616, -0.178975, -0.867188, -0.341553, 0.339355, 0.140903, 0.003056, -0.026169, 0.999986, -0.001154, -0.005113, -0.000895, -175.795147, -73.182665, -78.782660, , , 0.000000, , , 
55681, , 16.122828, -0.774045, -1.501969, 1.318627, -3.068539, 6.050565, 0.308504, -1.168497, -0.385829, -0.865234, -0.339355, 0.351807, 0.161297, -0.008029, -0.014090, 0.999980, 0.001543, -0.005842, -0.001929, -176.476385, -72.524436, -77.899195, , , 0.000000, , , 
55682, , 18.646735, -1.314767, 0.991730, 2.780223, -6.093340, 7.667322, 1.351495, -1.006289, -0.597491, -0.860840, -0.343750, 0.364258, 0.186374, -0.013775, 0.010764, 0.999960, 0.006757, -0.005031, -0.002987, -176.871645, -71.967185, -76.669951, , , 0.000000, , , 
55683, , 19.552196, 0.147645, 3.567750, 2.299128, -9.171115, 7.669921, 1.197945, -0.100415, -0.581386, -0.856445, -0.343750, 0.360107, 0.195507, 0.000694, 0.035781, 0.999978, 0.005990, -0.000502, -0.002907, -177.200820, -71.922060, -75.612688, , , 0.000000, , , 
55684, , 16.042707, -0.141165, 2.908180, 2.221287, -7.343355, 4.574261, 0.242051, 0.911853, -0.550015, -0.858643, -0.343750, 0.355957, 0.160553, -0.001888, 0.028348, 0.999985, 0.001210, 0.004559, -0.002750, -177.971236, -72.455822, -74.656654, , , 0.000000, , , 
55685, , 11.817615, -0.506345, 0.033108, 1.449756, -3.259160, 1.465098, 0.181255, 0.824847, -0.534974, -0.856201, -0.356689, 0.352295, 0.118162, -0.005380, -0.000161, 0.999988, 0.000906, 0.004124, -0.002675, -178.798338, -72.945148, -73.694267, , , 0.000000, , , 
55686, , 9.968041, 0.066630, -2.285213, 0.112040, -0.722555, 0.387981, 0.267205, 0.301193, -0.453357, -0.858154, -0.358887, 0.354248, 0.099647, 0.000471, -0.023001, 0.999995, 0.001336, 0.001506, -0.002267, -179.485313, -73.120099, -72.814773, , , 0.000000, , , 
55687, , 9.575246, 0.595621, -2.190534, -0.371712, -0.833332, -0.014429, 0.087515, 0.060966, -0.295605, -0.858154, -0.361084, 0.350342, 0.095754, 0.005824, -0.021932, 0.999999, 0.000438, 0.000305, -0.001478, 179.991333, -73.156408, -72.225824, , , 0.000000, , , 
55688, , 11.510236, 2.066527, -1.362614, -1.343993, -2.531162, 1.606564, -0.554492, 0.450970, -0.173090, -0.855957, -0.358887, 0.341797, 0.115089, 0.020527, -0.013943, 0.999993, -0.002772, 0.002255, -0.000865, 179.341208, -73.412709, -71.877531, , , 0.000000, , , 
55689, , 11.523539, 0.123867, 0.236592, 0.962590, -3.329300, 1.180561, -0.387699, 0.909237, -0.100575, -0.864746, -0.361084, 0.333496, 0.115245, 0.001185, 0.001840, 0.999988, -0.001938, 0.004546, -0.000503, 178.888626, -73.938414, -71.647837, , , 0.000000, , , 
55690, , 11.262465, 2.006103, 2.954419, -0.101228, -6.240898, 0.219103, -0.087864, 0.496563, -0.047759, -0.860352, -0.361084, 0.329346, 0.112702, 0.020047, 0.029256, 0.999997, -0.000439, 0.002483, -0.000239, 178.724608, -74.220793, -71.528411, , , 0.000000, , , 
55691, , 11.953190, 2.032841, 1.678241, -0.444029, -5.213882, 1.252839, -0.740776, 0.135041, -0.051389, -0.866699, -0.365234, 0.325195, 0.119548, 0.020359, 0.016626, 0.999993, -0.003704, 0.000675, -0.000257, 178.195109, -74.306667, -71.423085, , , 0.000000, , , 
55692, , 12.157535, 0.509061, -1.142447, 0.249474, -2.191692, 2.208298, -1.024407, 0.243868, -0.076071, -0.864258, -0.375977, 0.317139, 0.121563, 0.004985, -0.011598, 0.999986, -0.005122, 0.001219, -0.000380, 177.436619, -74.443145, -71.243713, , , 0.000000, , , 
55693, , 11.625869, 0.097250, -1.516711, 0.507598, -1.541966, 1.799162, -0.995155, 0.486241, -0.076240, -0.864258, -0.378174, 0.311035, 0.116222, 0.000852, -0.015454, 0.999985, -0.004976, 0.002431, -0.000381, 176.644446, -74.731110, -71.012966, , , 0.000000, , , 
55694, , 10.260168, -0.736699, -1.620612, 1.172798, -0.821793, 0.501823, -0.995507, 0.549301, -0.034270, -0.866211, -0.384521, 0.302734, 0.102555, -0.007466, -0.016451, 0.999984, -0.004978, 0.002746, -0.000171, 175.929492, -75.042449, -70.861958, , , 0.000000, , , 
55695, , 9.136848, -0.983026, -1.571706, 1.334512, -0.482749, -0.598323, -1.098149, 0.468287, 0.015371, -0.868408, -0.380371, 0.296387, 0.091332, -0.009910, -0.015877, 0.999982, -0.005491, 0.002341, 0.000077, 175.226357, -75.320137, -70.789990, , , 0.000000, , , 
55696, , 9.167164, -1.747368, -1.953290, 1.993763, 0.094682, -0.489524, -1.222313, 0.544665, 0.067818, -0.870605, -0.386719, 0.284180, 0.091624, -0.017563, -0.019675, 0.999978, -0.006112, 0.002723, 0.000339, 174.571934, -75.632988, -70.836150, , , 0.000000, , , 
55697, , 8.551293, -1.823124, -1.899771, 2.031412, 0.245797, -1.102330, -0.664427, 0.610789, 0.087840, -0.876953, -0.384521, 0.273682, 0.085463, -0.018257, -0.019198, 0.999990, -0.003322, 0.003054, 0.000439, 174.247976, -75.996666, -70.894481, , , 0.000000, , , 
55698, , 8.106001, -0.738366, -1.170116, 1.094638, -0.556306, -1.681650, -0.517830, 0.530032, 0.115894, -0.872803, -0.384521, 0.273682, 0.081033, -0.007367, -0.011897, 0.999993, -0.002589, 0.002650, 0.000579, 174.097997, -76.304101, -71.044301, , , 0.000000, , , 
55699, , 7.883155, -0.680086, -1.147113, 1.012479, -0.504521, -1.897970, -0.603513, 0.498581, 0.153622, -0.870605, -0.388916, 0.263184, 0.078808, -0.006775, -0.011647, 0.999992, -0.003018, 0.002493, 0.000768, 173.998537, -76.609857, -71.293409, , , 0.000000, , , 
55700, , 7.562347, -0.412144, -1.153617, 0.713947, -0.458304, -2.198887, -0.590756, 0.395769, 0.162511, -0.879150, -0.390869, 0.257080, 0.075604, -0.004094, -0.011674, 0.999993, -0.002954, 0.001979, 0.000813, 173.955761, -76.843728, -71.595915, , , 0.000000, , , 
55701, , 7.277240, -0.353178, -1.542468, 0.545766, -0.013986, -2.385436, -0.573587, 0.343162, 0.183121, -0.876953, -0.388672, 0.252930, 0.072749, -0.003510, -0.015539, 0.999994, -0.002868, 0.001716, 0.000916, 173.964365, -77.060704, -71.946911, , , 0.000000, , , 
55702, , 7.085004, -0.457096, -2.099534, 0.514237, 0.601528, -2.451441, -0.425004, 0.324085, 0.157444, -0.881348, -0.386475, 0.246582, 0.070819, -0.004560, -0.021100, 0.999996, -0.002125, 0.001620, 0.000787, 174.033270, -77.253404, -72.266018, , , 0.000000, , , 
55703, , 6.994687, -0.227531, -1.724712, 0.348556, 0.235971, -2.617214, -0.236289, 0.286532, 0.148296, -0.879150, -0.386475, 0.238281, 0.069924, -0.002244, -0.017345, 0.999998, -0.001181, 0.001433, 0.000741, 174.189300, -77.436718, -72.565894, , , 0.000000, , , 
55704, , 6.797581, -0.311720, -1.452457, 0.460976, 0.050760, -2.870152, -0.244449, 0.272681, 0.142969, -0.885742, -0.388672, 0.236084, 0.067958, -0.003086, -0.014613, 0.999998, -0.001222, 0.001363, 0.000715, 174.351060, -77.598956, -72.873681, , , 0.000000, , , 
55705, , 6.867763, -0.737857, -1.489843, 0.866208, 0.173813, -2.802004, -0.242810, 0.209561, 0.145843, -0.889893, -0.386475, 0.242432, 0.068667, -0.007347, -0.014961, 0.999998, -0.001214, 0.001048, 0.000729, 174.519621, -77.743284, -73.191445, , , 0.000000, , , 
55706, , 6.793400, -1.062188, -1.708604, 1.128949, 0.474030, -2.834248, -0.170923, 0.210453, 0.141171, -0.885742, -0.384277, 0.236084, 0.067923, -0.010589, -0.017148, 0.999999, -0.000855, 0.001052, 0.000706, 174.746216, -77.869536, -73.522120, , , 0.000000, , , 
55707, , 6.631754, -1.358790, -1.682799, 1.403990, 0.553553, -3.002354, 0.115717, 0.206287, 0.109023, -0.890137, -0.384277, 0.236084, 0.066308, -0.013542, -0.016904, 0.999999, 0.000579, 0.001031, 0.000545, 175.056312, -78.002159, -73.763214, , , 0.000000, , , 
55708, , 6.639839, -1.257287, -1.503298, 1.326490, 0.374306, -3.028263, 0.168838, 0.248619, 0.104334, -0.887939, -0.384277, 0.231934, 0.066386, -0.012525, -0.015126, 0.999999, 0.000844, 0.001243, 0.000522, 175.382974, -78.147726, -73.996847, , , 0.000000, , , 
55709, , 6.627486, -1.325371, -1.760256, 1.330279, 0.654250, -2.987662, 0.195018, 0.222866, 0.086727, -0.892334, -0.382080, 0.229736, 0.066261, -0.013208, -0.017689, 0.999999, 0.000975, 0.001114, 0.000434, 175.678931, -78.289465, -74.179849, , , 0.000000, , , 
55710, , 6.642267, -1.369856, -2.049797, 1.304746, 0.954033, -2.914478, 0.327727, 0.217048, 0.070813, -0.883789, -0.375732, 0.235840, 0.066405, -0.013641, -0.020592, 0.999998, 0.001639, 0.001085, 0.000354, 176.023396, -78.415069, -74.338455, , , 0.000000, , , 
55711, , 6.866781, -1.224630, -1.844978, 1.199574, 0.701114, -2.732731, 0.381579, 0.185253, 0.067697, -0.890381, -0.375732, 0.231689, 0.068655, -0.012188, -0.018537, 0.999998, 0.001908, 0.000926, 0.000338, 176.404885, -78.532203, -74.502756, , , 0.000000, , , 
55712, , 7.265363, -1.223948, -1.681986, 1.236414, 0.483232, -2.372906, 0.587586, 0.160382, 0.057125, -0.896729, -0.377930, 0.235840, 0.072644, -0.012169, -0.016914, 0.999995, 0.002938, 0.000802, 0.000286, 176.880644, -78.624486, -74.643265, , , 0.000000, , , 
55713, , 7.758273, -0.911566, -1.064061, 1.067458, -0.251354, -2.005557, 0.718199, 0.186108, 0.048384, -0.892334, -0.375732, 0.235840, 0.077575, -0.009058, -0.010745, 0.999993, 0.003591, 0.000931, 0.000242, 177.417894, -78.740749, -74.762087, , , 0.000000, , , 
55714, , 7.730788, -0.482818, -1.248887, 0.592853, -0.148544, -1.990645, 0.652562, 0.159622, 0.048792, -0.892578, -0.373535, 0.239990, 0.077299, -0.004768, -0.012566, 0.999994, 0.003263, 0.000798, 0.000244, 177.917868, -78.831893, -74.889204, , , 0.000000, , , 
55715, , 8.039665, -0.979199, -2.879607, 0.711166, 1.478880, -1.375018, 0.719609, 0.152061, 0.025766, -0.894531, -0.373535, 0.237793, 0.080376, -0.009678, -0.028892, 0.999993, 0.003598, 0.000760, 0.000129, 178.392289, -78.924405, -74.947264, , , 0.000000, , , 
55716, , 8.106016, -1.150959, -3.407925, 0.724854, 2.027822, -1.209870, 1.148151, 0.204451, 0.007357, -0.888184, -0.369385, 0.241943, 0.081026, -0.011310, -0.034227, 0.999983, 0.005741, 0.001022, 0.000037, 179.062265, -79.040219, -74.958184, , , 0.000000, , , 
55717, , 8.462219, -1.149874, -2.575864, 0.896057, 1.191645, -1.018183, 1.408693, 0.181470, -0.006873, -0.896973, -0.362793, 0.245850, 0.084598, -0.011319, -0.025916, 0.999975, 0.007043, 0.000907, -0.000034, 179.834333, -79.148749, -74.923050, , , 0.000000, , , 
55718, , 9.126381, -1.197306, -1.892903, 1.108338, 0.461540, -0.492503, 1.494993, 0.236769, -0.036318, -0.892822, -0.360596, 0.250000, 0.091239, -0.011847, -0.019126, 0.999971, 0.007475, 0.001184, -0.000182, -179.412075, -79.283071, -74.816765, , , 0.000000, , , 
55719, , 9.419660, -1.190311, -2.551708, 0.903374, 1.059679, -0.080326, 1.364744, 0.202002, -0.074938, -0.895020, -0.354248, 0.256104, 0.094166, -0.011763, -0.025693, 0.999976, 0.006824, 0.001010, -0.000375, -178.829920, -79.403298, -74.606941, , , 0.000000, , , 
55720, , 9.827565, -0.965539, -3.946799, 0.271957, 2.258635, 0.575522, 1.437143, 0.158788, -0.116305, -0.890869, -0.352051, 0.253906, 0.098239, -0.009428, -0.039614, 0.999974, 0.007186, 0.000794, -0.000582, -178.348562, -79.494461, -74.257513, , , 0.000000, , , 
55721, , 10.143396, -0.685341, -4.746348, -0.276575, 2.878704, 1.028077, 1.606992, 0.108013, -0.120031, -0.890869, -0.349854, 0.262207, 0.101404, -0.006532, -0.047572, 0.999967, 0.008035, 0.000540, -0.000600, -177.756425, -79.560815, -73.919740, , , 0.000000, , , 
55722, , 10.166990, 0.044494, -4.747471, -1.039490, 2.636288, 1.044435, 1.798118, 0.032064, -0.086575, -0.893066, -0.347900, 0.274658, 0.101663, 0.000828, -0.047485, 0.999959, 0.008990, 0.000160, -0.000433, -176.987312, -79.579991, -73.652714, , , 0.000000, , , 
55723, , 10.306734, 0.654227, -4.559445, -1.611179, 2.199070, 1.142360, 1.559959, -0.166031, -0.020227, -0.891357, -0.334961, 0.278564, 0.103106, 0.006887, -0.045456, 0.999969, 0.007800, -0.000830, -0.000101, -176.169211, -79.482019, -73.574296, , , 0.000000, , , 
55724, , 10.561276, 0.788212, -4.554739, -1.767008, 2.046521, 1.394296, 1.112424, -0.352339, 0.033979, -0.895752, -0.330566, 0.284668, 0.105691, 0.008153, -0.045316, 0.999983, 0.005562, -0.001762, 0.000170, -175.503210, -79.277773, -73.601888, , , 0.000000, , , 
55725, , 10.258833, 0.363652, -4.751559, -1.487634, 2.361342, 1.149233, 0.862398, -0.519041, 0.089556, -0.891357, -0.332764, 0.291016, 0.102709, 0.003887, -0.047233, 0.999987, 0.004312, -0.002595, 0.000448, -174.803208, -78.973721, -73.801446, , , 0.000000, , , 
55726, , 10.317075, 0.213443, -4.548527, -1.286003, 2.139098, 1.184881, 0.491222, -0.712199, 0.116125, -0.889404, -0.326416, 0.301270, 0.103331, 0.002305, -0.045112, 0.999990, 0.002456, -0.003561, 0.000581, -174.378741, -78.559677, -73.945677, , , 0.000000, , , 
55727, , 10.898220, -0.471761, -4.500004, -0.592174, 2.144851, 1.775753, -0.026392, -0.810754, 0.143315, -0.885010, -0.328613, 0.305420, 0.109167, -0.004645, -0.044557, 0.999992, -0.000132, -0.004054, 0.000717, -174.178129, -78.085104, -74.160483, , , 0.000000, , , 
55728, , 11.855288, -0.981774, -4.282686, 0.038144, 1.839064, 2.696041, -0.007572, -0.943968, 0.160581, -0.876221, -0.328613, 0.309570, 0.118761, -0.009724, -0.042266, 0.999989, -0.000038, -0.004720, 0.000803, -174.013258, -77.536094, -74.331980, , , 0.000000, , , 
55729, , 13.260858, -0.294599, -3.403537, -0.175294, 0.361757, 3.875176, 0.305747, -1.116818, 0.166215, -0.880615, -0.324219, 0.330322, 0.132798, -0.002784, -0.033299, 0.999983, 0.001529, -0.005584, 0.000831, -173.704761, -76.887091, -74.476750, , , 0.000000, , , 
55730, , 14.566740, 1.211846, -2.276983, -1.051160, -1.664610, 4.848976, 0.236495, -1.230857, 0.158620, -0.874268, -0.322266, 0.338623, 0.145794, 0.012260, -0.021858, 0.999980, 0.001182, -0.006154, 0.000793, -173.516902, -76.174547, -74.528947, , , 0.000000, , , 
55731, , 15.933566, 1.355386, -1.786060, -0.871929, -2.661978, 6.032057, -0.054641, -1.235996, 0.151672, -0.867920, -0.322266, 0.349121, 0.159432, 0.013670, -0.016879, 0.999981, -0.000273, -0.006180, 0.000758, -173.498109, -75.453036, -74.578958, , , 0.000000, , , 
55732, , 17.062013, 0.147091, -0.350692, 0.891247, -3.961696, 6.763337, 0.250421, -1.085261, 0.219270, -0.874268, -0.320068, 0.355469, 0.170634, 0.001662, -0.002579, 0.999984, 0.001252, -0.005426, 0.001096, -173.153940, -74.819219, -74.784911, , , 0.000000, , , 
55733, , 16.202662, -0.023174, 1.502998, 1.684628, -5.495848, 5.410380, 0.200565, -0.816747, 0.339072, -0.867920, -0.315674, 0.365723, 0.161964, 0.000027, 0.015691, 0.999990, 0.001003, -0.004084, 0.001695, -172.535663, -74.328478, -75.306002, , , 0.000000, , , 
55734, , 13.787568, -0.179077, 2.035479, 1.843770, -5.381084, 2.911944, -0.296887, -0.379965, 0.349382, -0.865967, -0.311523, 0.365479, 0.137839, -0.001519, 0.020619, 0.999996, -0.001484, -0.001900, 0.001747, -172.104564, -74.084326, -75.929081, , , 0.000000, , , 
55735, , 12.063799, -1.367753, 0.838635, 2.364216, -3.460664, 1.612875, -0.270956, -0.020678, 0.275523, -0.868164, -0.311523, 0.367676, 0.120656, -0.013500, 0.008417, 0.999998, -0.001355, -0.000103, 0.001378, -171.697514, -74.050905, -76.509579, , , 0.000000, , , 
55736, , 10.611562, -1.692318, -0.455493, 2.072166, -1.798340, 0.586766, 0.635363, 0.239516, 0.176364, -0.872559, -0.309326, 0.365479, 0.106125, -0.016815, -0.004736, 0.999994, 0.003177, 0.001198, 0.000882, -170.907059, -74.169613, -76.951199, , , 0.000000, , , 
55737, , 9.583372, -0.246114, 0.550142, 1.016671, -2.935323, -0.726738, 1.224667, 0.186922, 0.072399, -0.877197, -0.296387, 0.367188, 0.095840, -0.002460, 0.005397, 0.999981, 0.006123, 0.000935, 0.000362, -169.977324, -74.270438, -77.179940, , , 0.000000, , , 
55738, , 9.715725, -0.142710, 1.642616, 1.344283, -3.964328, -0.891317, 0.694491, 0.041716, 0.009444, -0.868408, -0.296387, 0.371338, 0.097161, -0.001479, 0.016401, 0.999994, 0.003472, 0.000209, 0.000047, -169.542874, -74.291312, -77.216129, , , 0.000000, , , 
55739, , 10.566254, -0.976359, -0.011899, 1.525511, -2.395863, 0.411392, 0.620524, 0.009582, -0.033283, -0.868652, -0.291992, 0.369141, 0.105661, -0.009781, -0.000154, 0.999995, 0.003103, 0.000048, -0.000166, -169.205729, -74.304116, -77.180030, , , 0.000000, , , 
55740, , 10.476366, 0.225427, -2.686269, -0.643870, -0.449965, 0.976361, -0.159258, 0.709747, -0.033846, -0.875000, -0.294189, 0.363037, 0.104668, 0.002215, -0.027236, 0.999993, -0.000796, 0.003549, -0.000169, -169.086870, -74.705449, -77.396253, , , 0.000000, , , 
55741, , 9.241615, -2.201132, -0.521171, 2.341824, -1.039324, -0.649739, 0.531056, 0.216137, -0.040033, -0.870605, -0.298584, 0.367188, 0.092406, -0.022016, -0.005370, 0.999996, 0.002655, 0.001081, -0.000200, -168.734328, -74.837533, -77.433059, , , 0.000000, , , 
55742, , 10.731708, -0.124026, 1.485211, 1.320149, -3.992654, 0.172636, 0.963050, 0.060027, -0.033512, -0.877197, -0.289795, 0.369141, 0.107321, -0.001330, 0.014814, 0.999988, 0.004815, 0.000300, -0.000168, -168.224000, -74.873360, -77.388262, , , 0.000000, , , 
55743, , 10.781587, 0.214486, 0.780521, 0.734646, -3.509168, 0.387502, 0.817541, 0.157132, -0.006145, -0.875000, -0.291992, 0.369141, 0.107822, 0.002110, 0.007729, 0.999991, 0.004088, 0.000786, -0.000031, -167.672099, -74.964659, -77.461214, , , 0.000000, , , 
55744, , 10.514202, 0.397276, -1.099101, -0.228130, -1.865678, 0.597955, 0.965703, 0.070548, -0.012086, -0.875244, -0.287842, 0.369141, 0.105138, 0.004020, -0.011009, 0.999988, 0.004828, 0.000353, -0.000060, -167.108472, -75.003887, -77.470015, , , 0.000000, , , 
55745, , 10.073342, 0.939321, -1.717097, -1.020416, -1.440645, 0.296033, 1.131112, 0.256192, -0.036632, -0.875244, -0.283447, 0.375244, 0.100713, 0.009472, -0.017247, 0.999983, 0.005656, 0.001281, -0.000183, -166.392523, -75.157922, -77.528921, , , 0.000000, , , 
55746, , 9.114479, 1.335252, -1.044194, -1.156439, -1.941235, -0.821515, 0.979124, 0.416541, -0.068095, -0.881836, -0.281250, 0.371094, 0.091127, 0.013373, -0.010566, 0.999986, 0.004896, 0.002083, -0.000340, -165.754527, -75.397219, -77.606619, , , 0.000000, , , 
55747, , 8.245926, 1.180553, -0.715402, -0.931259, -1.922121, -1.729436, 0.780866, 0.381891, -0.098414, -0.882080, -0.274902, 0.370850, 0.082451, 0.011793, -0.007265, 0.999990, 0.003904, 0.001909, -0.000492, -165.286197, -75.628159, -77.611989, , , 0.000000, , , 
55748, , 8.069974, 1.163937, -0.842703, -0.989254, -1.741526, -1.864241, 0.578056, 0.354589, -0.131482, -0.879883, -0.277100, 0.366699, 0.080692, 0.011611, -0.008537, 0.999994, 0.002890, 0.001773, -0.000657, -165.034282, -75.842092, -77.528231, , , 0.000000, , , 
55749, , 7.552350, 1.079506, -1.516443, -1.253442, -0.980768, -2.198893, 0.502793, 0.309082, -0.152473, -0.879883, -0.272705, 0.366699, 0.075508, 0.010776, -0.015254, 0.999995, 0.002514, 0.001545, -0.000762, -164.869054, -76.043525, -77.382905, , , 0.000000, , , 
55750, , 7.303317, 0.868753, -1.919380, -1.269177, -0.462795, -2.332569, 0.455416, 0.286046, -0.183452, -0.875488, -0.277100, 0.366699, 0.073014, 0.008664, -0.019278, 0.999996, 0.002277, 0.001430, -0.000917, -164.843183, -76.227432, -77.138798, , , 0.000000, , , 
55751, , 7.242390, 1.185009, -1.560378, -1.388181, -0.887049, -2.493034, 0.500434, 0.228892, -0.187957, -0.877686, -0.274902, 0.368652, 0.072417, 0.011821, -0.015657, 0.999996, 0.002502, 0.001144, -0.000940, -164.822194, -76.387387, -76.852495, , , 0.000000, , , 
55752, , 7.160810, 1.550458, -1.263188, -1.573169, -1.282285, -2.660231, 0.249668, 0.146005, -0.170300, -0.879883, -0.272705, 0.366699, 0.071612, 0.015459, -0.012665, 0.999999, 0.001248, 0.000730, -0.000851, -164.976763, -76.491810, -76.544315, , , 0.000000, , , 
55753, , 7.259357, 1.440056, -0.660454, -1.181120, -1.755387, -2.690063, -0.466601, 0.036025, -0.137356, -0.882080, -0.274902, 0.364502, 0.072602, 0.014335, -0.006651, 0.999997, -0.002333, 0.000180, -0.000687, -165.517091, -76.534667, -76.246952, , , 0.000000, , , 
