PacketCounter, SampleTimeFine, Acc_X, Acc_Y, Acc_Z, FreeAcc_X, FreeAcc_Y, FreeAcc_Z, Gyr_X, Gyr_Y, Gyr_Z, Mag_X, Mag_Y, Mag_Z, VelInc_X, VelInc_Y, VelInc_Z, OriInc_q0, OriInc_q1, OriInc_q2, OriInc_q3, Roll, Pitch, Yaw, Latitude, Longitude, Altitude, Vel_X, Vel_Y, Vel_Z
60696, , 9.515968, 0.156521, -2.299084, 0.000000, 0.000000, -0.021674, 0.010125, 0.039760, -0.000575, -0.860840, 0.442139, 0.181885, 0.095155, 0.001566, -0.023010, 1.000000, 0.000051, 0.000199, -0.000003, 176.106310, -76.375843, 95.859942, , , 0.000000, , , 
60697, , 9.481494, 0.174472, -2.258254, -0.000000, 0.000000, -0.064412, 0.007645, 0.033513, 0.004926, -0.865234, 0.442139, 0.175781, 0.094811, 0.001748, -0.022598, 1.000000, 0.000038, 0.000168, 0.000025, 175.577144, -76.555021, 96.873879, , , 0.000000, , , 
60698, , 9.509522, 0.101559, -2.289804, -0.063840, -0.008477, -0.031052, -0.012206, 0.025215, 0.009393, -0.862793, 0.439941, 0.177979, 0.095092, 0.001019, -0.022910, 1.000000, -0.000061, 0.000126, 0.000047, 175.856207, -76.468853, 96.387586, , , 0.000000, , , 
60699, , 9.516446, 0.106725, -2.363984, -0.055395, -0.081328, -0.006930, -0.001155, 0.028136, 0.008123, -0.865234, 0.446533, 0.177734, 0.095161, 0.001071, -0.023653, 1.000000, -0.000006, 0.000141, 0.000041, 175.870013, -76.485268, 96.372706, , , 0.000000, , , 
60700, , 9.495014, 0.144522, -2.321707, -0.017641, -0.046183, -0.037000, 0.007913, 0.020345, 0.008125, -0.860840, 0.439941, 0.177979, 0.094948, 0.001450, -0.023227, 1.000000, 0.000040, 0.000102, 0.000041, 175.890283, -76.498297, 96.357087, , , 0.000000, , , 
60701, , 9.532478, 0.173311, -2.283487, 0.009765, -0.001007, -0.008995, 0.011638, 0.018451, 0.006473, -0.867188, 0.440186, 0.171631, 0.095323, 0.001738, -0.022844, 1.000000, 0.000058, 0.000092, 0.000032, 175.909215, -76.509106, 96.344474, , , 0.000000, , , 
60702, , 9.541236, 0.169952, -2.304619, 0.007857, -0.022163, 0.004379, 0.018849, 0.017231, 0.004001, -0.863037, 0.442139, 0.181885, 0.095410, 0.001704, -0.023054, 1.000000, 0.000094, 0.000086, 0.000020, 175.923984, -76.523868, 96.342788, , , 0.000000, , , 
60703, , 9.522908, 0.182475, -2.311568, 0.021986, -0.034004, -0.011627, 0.011489, 0.011753, 0.006188, -0.858643, 0.439941, 0.177979, 0.095228, 0.001829, -0.023121, 1.000000, 0.000057, 0.000059, 0.000031, 175.943336, -76.530837, 96.329658, , , 0.000000, , , 
60704, , 9.526438, 0.156604, -2.359156, -0.001620, -0.080462, 0.002438, 0.004667, 0.002468, 0.001573, -0.860840, 0.442139, 0.177734, 0.095264, 0.001567, -0.023593, 1.000000, 0.000023, 0.000012, 0.000008, 175.951420, -76.528164, 96.322133, , , 0.000000, , , 
60705, , 9.509779, 0.161141, -2.313441, 0.002169, -0.039789, -0.024312, -0.002375, -0.000205, 0.008358, -0.863037, 0.444336, 0.177734, 0.095098, 0.001615, -0.023134, 1.000000, -0.000012, -0.000001, 0.000042, 175.970035, -76.528384, 96.301592, , , 0.000000, , , 
60706, , 9.515055, 0.127082, -2.308032, -0.031785, -0.034204, -0.020994, -0.008811, -0.005363, 0.003196, -0.869629, 0.448730, 0.175537, 0.095151, 0.001271, -0.023078, 1.000000, -0.000044, -0.000027, 0.000016, 175.974067, -76.524042, 96.291867, , , 0.000000, , , 
60707, , 9.506632, 0.129488, -2.285554, -0.029890, -0.013868, -0.034370, -0.013359, -0.001800, 0.004478, -0.867188, 0.442139, 0.173584, 0.095066, 0.001295, -0.022855, 1.000000, -0.000067, -0.000009, 0.000022, 175.977395, -76.523193, 96.280573, , , 0.000000, , , 
60708, , 9.447959, 0.081835, -2.301762, -0.075206, -0.045979, -0.088441, -0.008069, 0.002226, 0.004675, -0.860840, 0.444336, 0.173584, 0.094479, 0.000820, -0.023019, 1.000000, -0.000040, 0.000011, 0.000023, 175.981768, -76.529158, 96.274049, , , 0.000000, , , 
60709, , 9.456087, 0.135330, -2.304311, -0.021437, -0.044823, -0.079071, 0.021834, 0.007743, 0.000873, -0.860840, 0.446533, 0.173584, 0.094560, 0.001356, -0.023047, 1.000000, 0.000109, 0.000039, 0.000004, 175.995066, -76.533619, 96.273239, , , 0.000000, , , 
60710, , 9.485224, 0.110457, -2.264304, -0.047707, -0.001275, -0.060433, 0.038263, 0.005423, -0.001308, -0.858643, 0.439941, 0.171631, 0.094852, 0.001108, -0.022645, 1.000000, 0.000191, 0.000027, -0.000007, 176.014043, -76.539472, 96.278506, , , 0.000000, , , 
60711, , 9.552381, 0.154686, -2.270396, -0.004271, 0.009724, 0.007012, 0.030465, 0.005742, -0.000036, -0.865234, 0.444336, 0.177734, 0.095523, 0.001550, -0.022706, 1.000000, 0.000152, 0.000029, -0.000000, 176.030458, -76.542753, 96.279576, , , 0.000000, , , 
60712, , 9.579389, 0.138406, -2.284933, -0.020155, 0.000980, 0.036392, 0.009689, -0.006234, -0.001366, -0.865234, 0.448730, 0.179688, 0.095795, 0.001385, -0.022846, 1.000000, 0.000048, -0.000031, -0.000007, 176.036517, -76.540646, 96.280630, , , 0.000000, , , 
60713, , 9.567993, 0.109593, -2.233764, -0.050321, 0.046996, 0.012966, -0.016732, 0.003565, 0.008153, -0.865234, 0.446533, 0.175537, 0.095679, 0.001098, -0.022339, 1.000000, -0.000084, 0.000018, 0.000041, 176.045815, -76.543006, 96.261213, , , 0.000000, , , 
60714, , 9.624091, 0.069163, -2.208379, -0.092443, 0.082743, 0.060988, -0.016107, 0.005122, 0.006776, -0.860840, 0.446533, 0.181885, 0.096240, 0.000693, -0.022086, 1.000000, -0.000081, 0.000026, 0.000034, 176.059158, -76.545049, 96.238168, , , 0.000000, , , 
60715, , 9.622260, 0.077046, -2.261740, -0.082097, 0.030228, 0.071727, -0.018414, 0.006241, 0.009989, -0.863037, 0.442139, 0.177734, 0.096222, 0.000773, -0.022620, 1.000000, -0.000092, 0.000031, 0.000050, 176.071451, -76.549010, 96.214680, , , 0.000000, , , 
60716, , 9.508762, 0.108753, -2.384886, -0.042334, -0.114206, -0.009564, -0.028606, 0.002315, 0.009047, -0.864990, 0.442139, 0.177734, 0.095087, 0.001088, -0.023850, 1.000000, -0.000143, 0.000012, 0.000045, 176.085635, -76.547308, 96.181817, , , 0.000000, , , 
60717, , 9.483114, 0.107560, -2.472702, -0.039573, -0.205399, -0.014141, -0.047018, -0.006081, 0.012494, -0.858887, 0.448730, 0.183838, 0.094832, 0.001076, -0.024724, 1.000000, -0.000235, -0.000030, 0.000062, 176.089542, -76.544320, 96.150100, , , 0.000000, , , 
60718, , 9.484817, 0.099327, -2.419785, -0.049413, -0.151811, -0.024864, -0.068049, -0.016169, 0.014549, -0.863037, 0.444336, 0.177734, 0.094850, 0.000992, -0.024191, 1.000000, -0.000340, -0.000081, 0.000073, 176.103561, -76.529728, 96.094364, , , 0.000000, , , 
60719, , 9.545423, 0.082213, -2.370917, -0.070081, -0.089445, 0.022464, -0.066586, -0.016298, 0.013533, -0.869385, 0.444336, 0.179932, 0.095456, 0.000821, -0.023702, 1.000000, -0.000333, -0.000081, 0.000068, 176.100346, -76.520938, 96.058439, , , 0.000000, , , 
60720, , 9.541702, 0.107746, -2.324203, -0.045961, -0.041672, 0.008400, -0.062853, -0.018206, 0.011875, -0.856689, 0.446533, 0.181885, 0.095419, 0.001076, -0.023234, 1.000000, -0.000314, -0.000091, 0.000059, 176.109946, -76.507819, 96.012864, , , 0.000000, , , 
60721, , 9.595057, 0.132525, -2.334819, -0.022335, -0.037161, 0.063151, -0.050617, -0.013503, 0.013006, -0.867188, 0.440186, 0.173584, 0.095952, 0.001326, -0.023342, 1.000000, -0.000253, -0.000068, 0.000065, 176.114097, -76.500608, 95.978770, , , 0.000000, , , 
60722, , 9.716508, 0.153820, -2.215463, -0.007553, 0.109506, 0.153777, -0.042195, -0.012265, 0.010358, -0.860840, 0.442139, 0.177734, 0.097166, 0.001539, -0.022149, 1.000000, -0.000211, -0.000061, 0.000052, 176.128783, -76.491766, 95.940791, , , 0.000000, , , 
60723, , 9.811427, 0.134522, -2.100784, -0.032868, 0.242735, 0.219037, -0.057461, 0.001743, 0.013485, -0.860840, 0.442139, 0.179932, 0.098114, 0.001346, -0.021009, 1.000000, -0.000287, 0.000009, 0.000067, 176.127658, -76.493291, 95.908092, , , 0.000000, , , 
60724, , 9.808645, 0.103078, -2.071227, -0.064595, 0.268499, 0.208982, -0.082419, 0.021289, 0.020558, -0.863037, 0.446533, 0.177734, 0.098084, 0.001032, -0.020723, 1.000000, -0.000412, 0.000106, 0.000103, 176.134320, -76.505953, 95.853729, , , 0.000000, , , 
60725, , 9.758881, 0.053011, -2.107430, -0.111828, 0.216812, 0.168310, -0.088889, 0.039978, 0.023073, -0.860596, 0.437988, 0.179932, 0.097585, 0.000532, -0.021094, 1.000000, -0.000444, 0.000200, 0.000115, 176.131938, -76.529706, 95.803809, , , 0.000000, , , 
60726, , 9.651626, 0.051942, -2.220634, -0.105725, 0.076448, 0.090381, -0.087330, 0.055782, 0.023487, -0.860840, 0.439941, 0.179932, 0.096510, 0.000521, -0.022233, 1.000000, -0.000437, 0.000279, 0.000117, 176.142612, -76.566492, 95.742451, , , 0.000000, , , 
60727, , 9.548003, 0.026111, -2.381648, -0.123840, -0.110452, 0.026507, -0.090778, 0.055057, 0.024281, -0.860840, 0.439941, 0.177979, 0.095473, 0.000262, -0.023843, 1.000000, -0.000454, 0.000275, 0.000121, 176.139849, -76.598913, 95.691825, , , 0.000000, , , 
60728, , 9.517274, 0.018989, -2.387574, -0.129043, -0.129267, -0.002182, -0.087101, 0.051788, 0.027751, -0.865234, 0.444336, 0.177734, 0.095167, 0.000193, -0.023900, 1.000000, -0.000436, 0.000259, 0.000139, 176.159484, -76.632602, 95.621058, , , 0.000000, , , 
60729, , 9.484913, 0.027672, -2.291657, -0.121496, -0.047928, -0.055691, -0.089532, 0.046157, 0.030635, -0.863037, 0.446533, 0.177734, 0.094844, 0.000281, -0.022939, 1.000000, -0.000448, 0.000231, 0.000153, 176.174433, -76.660175, 95.552973, , , 0.000000, , , 
60730, , 9.470969, 0.022552, -2.187993, -0.126324, 0.044750, -0.093165, -0.091340, 0.042092, 0.032149, -0.860840, 0.446533, 0.175537, 0.094705, 0.000231, -0.021900, 1.000000, -0.000457, 0.000210, 0.000161, 176.236194, -76.689410, 95.439371, , , 0.000000, , , 
60731, , 9.515465, 0.057403, -2.223923, -0.090443, 0.017075, -0.041059, -0.097409, 0.039685, 0.031537, -0.860840, 0.442139, 0.181885, 0.095150, 0.000578, -0.022258, 1.000000, -0.000487, 0.000198, 0.000158, 176.250308, -76.713307, 95.367529, , , 0.000000, , , 
60732, , 9.512919, 0.081335, -2.171677, -0.065228, 0.063980, -0.055123, -0.098590, 0.037183, 0.031680, -0.860840, 0.442139, 0.179932, 0.095125, 0.000818, -0.021735, 1.000000, -0.000493, 0.000186, 0.000158, 176.305360, -76.738197, 95.255394, , , 0.000000, , , 
60733, , 9.392394, 0.060769, -2.289479, -0.079597, -0.082242, -0.145766, -0.099506, 0.032806, 0.028412, -0.860840, 0.446533, 0.177734, 0.093920, 0.000610, -0.022911, 1.000000, -0.000498, 0.000164, 0.000142, 176.312168, -76.758028, 95.189839, , , 0.000000, , , 
60734, , 9.374598, 0.011293, -2.471789, -0.122386, -0.268035, -0.122170, -0.097158, 0.021758, 0.026586, -0.863037, 0.444336, 0.179932, 0.093743, 0.000113, -0.024728, 1.000000, -0.000486, 0.000109, 0.000133, 176.359262, -76.773793, 95.086866, , , 0.000000, , , 
60735, , 9.324593, -0.038399, -2.510251, -0.169641, -0.319718, -0.162823, -0.083095, 0.009958, 0.031619, -0.861084, 0.450928, 0.175537, 0.093245, -0.000380, -0.025107, 1.000000, -0.000415, 0.000050, 0.000158, 176.387069, -76.780662, 95.009410, , , 0.000000, , , 
60736, , 9.430765, -0.031119, -2.445547, -0.162224, -0.232332, -0.074068, -0.044633, -0.005539, 0.027320, -0.863037, 0.444336, 0.175781, 0.094308, -0.000304, -0.024453, 1.000000, -0.000223, -0.000028, 0.000137, 176.493439, -76.778626, 94.879573, , , 0.000000, , , 
60737, , 9.583854, 0.049376, -2.292552, -0.086442, -0.046281, 0.041188, -0.031180, 0.002331, 0.025810, -0.865234, 0.446533, 0.177734, 0.095838, 0.000503, -0.022927, 1.000000, -0.000156, 0.000012, 0.000129, 176.538170, -76.780903, 94.815301, , , 0.000000, , , 
60738, , 9.688304, 0.065110, -2.281705, -0.068908, -0.011458, 0.140642, -0.024628, -0.000417, 0.024725, -0.856445, 0.442139, 0.181885, 0.096883, 0.000660, -0.022817, 1.000000, -0.000123, -0.000002, 0.000124, 176.640915, -76.781809, 94.701621, , , 0.000000, , , 
60739, , 9.757496, 0.098470, -2.232786, -0.035742, 0.052054, 0.197296, -0.006975, 0.015028, 0.026523, -0.861084, 0.448730, 0.181885, 0.097573, 0.000997, -0.022335, 1.000000, -0.000035, 0.000075, 0.000133, 176.699495, -76.791362, 94.637385, , , 0.000000, , , 
60740, , 9.791766, 0.093380, -2.165384, -0.038401, 0.124144, 0.215243, 0.004210, 0.034588, 0.024275, -0.858643, 0.442139, 0.173584, 0.097914, 0.000946, -0.021671, 1.000000, 0.000021, 0.000173, 0.000121, 176.808266, -76.805789, 94.531756, , , 0.000000, , , 
60741, , 9.813112, 0.062158, -2.255055, -0.065708, 0.036290, 0.256110, -0.001715, 0.058736, 0.021216, -0.865234, 0.448730, 0.179688, 0.098124, 0.000632, -0.022579, 1.000000, -0.000009, 0.000294, 0.000106, 176.851324, -76.840117, 94.486559, , , 0.000000, , , 
60742, , 9.681582, 0.123908, -2.277497, 0.002906, -0.021022, 0.133916, -0.038754, 0.082640, 0.028214, -0.862793, 0.439941, 0.179932, 0.096806, 0.001248, -0.022815, 1.000000, -0.000194, 0.000413, 0.000141, 176.936256, -76.889701, 94.381574, , , 0.000000, , , 
60743, , 9.626633, 0.060850, -2.388821, -0.055703, -0.152079, 0.104772, -0.094488, 0.091374, 0.023263, -0.867188, 0.442139, 0.175781, 0.096255, 0.000608, -0.023932, 1.000000, -0.000472, 0.000457, 0.000116, 176.927461, -76.942773, 94.335070, , , 0.000000, , , 
60744, , 9.512529, 0.013732, -2.340275, -0.100269, -0.140395, -0.018020, -0.056122, 0.094312, 0.021365, -0.863037, 0.448730, 0.179688, 0.095114, 0.000141, -0.023448, 1.000000, -0.000281, 0.000472, 0.000107, 176.961725, -76.995583, 94.270357, , , 0.000000, , , 
60745, , 9.462006, 0.091252, -2.227755, -0.023070, -0.049404, -0.091689, -0.070025, 0.090804, 0.027070, -0.860840, 0.446533, 0.179688, 0.094610, 0.000918, -0.022321, 1.000000, -0.000350, 0.000454, 0.000135, 176.976711, -77.048445, 94.213845, , , 0.000000, , , 
60746, , 9.393681, 0.064942, -2.321992, -0.043599, -0.164226, -0.137552, -0.099828, 0.080512, 0.022552, -0.863037, 0.448730, 0.171387, 0.093927, 0.000648, -0.023258, 1.000000, -0.000499, 0.000403, 0.000113, 177.027661, -77.088903, 94.107446, , , 0.000000, , , 
60747, , 9.441850, 0.030111, -2.477403, -0.076462, -0.313079, -0.056505, -0.112469, 0.070219, 0.026896, -0.863037, 0.444336, 0.173584, 0.094410, 0.000300, -0.024807, 1.000000, -0.000562, 0.000351, 0.000134, 177.021259, -77.129945, 94.047938, , , 0.000000, , , 
60748, , 9.651434, 0.014007, -2.312724, -0.096551, -0.112578, 0.110874, -0.113466, 0.064460, 0.028728, -0.867432, 0.446533, 0.171387, 0.096507, 0.000141, -0.023158, 1.000000, -0.000567, 0.000322, 0.000144, 177.072258, -77.166321, 93.935962, , , 0.000000, , , 
60749, , 9.806510, -0.022579, -2.350050, -0.134763, -0.121699, 0.269868, -0.132975, 0.063356, 0.030678, -0.863037, 0.444336, 0.175781, 0.098058, -0.000226, -0.023531, 1.000000, -0.000665, 0.000317, 0.000153, 177.065010, -77.203588, 93.865317, , , 0.000000, , , 
60750, , 9.838899, -0.062274, -2.406670, -0.172299, -0.176627, 0.313466, -0.154094, 0.074757, 0.033088, -0.865234, 0.444336, 0.177734, 0.098380, -0.000625, -0.024103, 1.000000, -0.000770, 0.000374, 0.000165, 177.101792, -77.243857, 93.744112, , , 0.000000, , , 
60751, , 9.830896, -0.049817, -2.430135, -0.160060, -0.208830, 0.310817, -0.178800, 0.079454, 0.033341, -0.867432, 0.444336, 0.179932, 0.098299, -0.000504, -0.024340, 1.000000, -0.000894, 0.000397, 0.000167, 177.073356, -77.290449, 93.668311, , , 0.000000, , , 
60752, , 9.879752, -0.026399, -2.563276, -0.135164, -0.334017, 0.387839, -0.198137, 0.088838, 0.031304, -0.863037, 0.444336, 0.173584, 0.098786, -0.000274, -0.025676, 0.999999, -0.000991, 0.000444, 0.000157, 177.083098, -77.330883, 93.548298, , , 0.000000, , , 
60753, , 9.663485, -0.046418, -2.609657, -0.153790, -0.435725, 0.186408, -0.204934, 0.087250, 0.032765, -0.860840, 0.446533, 0.173584, 0.096624, -0.000475, -0.026138, 0.999999, -0.001025, 0.000436, 0.000164, 177.037405, -77.381905, 93.474844, , , 0.000000, , , 
60754, , 9.354163, -0.042911, -2.772869, -0.145021, -0.668948, -0.080140, -0.196684, 0.081048, 0.032349, -0.863037, 0.446533, 0.175537, 0.093530, -0.000441, -0.027766, 0.999999, -0.000983, 0.000405, 0.000162, 177.055784, -77.419897, 93.349902, , , 0.000000, , , 
60755, , 9.059790, -0.140636, -2.922945, -0.240285, -0.887979, -0.336563, -0.151842, 0.082070, 0.027094, -0.863037, 0.448730, 0.175537, 0.090586, -0.001416, -0.029266, 1.000000, -0.000759, 0.000410, 0.000135, 177.027073, -77.467834, 93.290262, , , 0.000000, , , 
60756, , 8.913985, -0.147691, -2.815260, -0.243625, -0.817838, -0.502563, -0.044285, 0.061812, 0.022733, -0.867432, 0.446533, 0.173584, 0.089131, -0.001473, -0.028180, 1.000000, -0.000221, 0.000309, 0.000114, 177.136161, -77.484487, 93.165102, , , 0.000000, , , 
60757, , 8.876272, -0.005585, -2.627693, -0.101503, -0.646343, -0.578786, -0.078380, 0.032668, 0.020998, -0.864990, 0.442139, 0.181885, 0.088758, -0.000057, -0.026291, 1.000000, -0.000392, 0.000163, 0.000105, 177.140906, -77.503978, 93.114334, , , 0.000000, , , 
60758, , 8.968816, -0.129807, -2.606982, -0.225178, -0.603723, -0.494014, -0.122635, 0.008012, 0.021895, -0.867432, 0.446533, 0.179688, 0.089687, -0.001304, -0.026073, 1.000000, -0.000613, 0.000040, 0.000109, 177.198076, -77.479549, 92.997695, , , 0.000000, , , 
60759, , 9.093395, -0.202308, -2.501556, -0.300279, -0.473598, -0.395996, -0.097100, -0.016783, 0.019504, -0.863281, 0.450928, 0.175537, 0.090936, -0.002026, -0.025007, 1.000000, -0.000485, -0.000084, 0.000098, 177.194256, -77.470677, 92.944696, , , 0.000000, , , 
60760, , 9.413560, -0.161094, -2.279151, -0.259736, -0.179213, -0.130951, -0.075943, -0.027470, 0.014521, -0.861084, 0.450928, 0.179688, 0.094139, -0.001613, -0.022778, 1.000000, -0.000380, -0.000137, 0.000073, 177.298351, -77.423813, 92.809892, , , 0.000000, , , 
60761, , 9.692343, -0.281522, -2.165752, -0.383231, -0.005400, 0.115271, -0.066290, -0.028363, 0.018692, -0.863037, 0.442139, 0.181885, 0.096927, -0.002813, -0.021643, 1.000000, -0.000331, -0.000142, 0.000093, 177.311281, -77.408274, 92.757814, , , 0.000000, , , 
60762, , 9.969082, -0.159290, -2.071474, -0.259775, 0.155622, 0.366078, -0.031943, -0.019386, 0.014546, -0.860840, 0.442139, 0.181885, 0.099693, -0.001589, -0.020705, 1.000000, -0.000160, -0.000097, 0.000073, 177.432284, -77.364769, 92.631684, , , 0.000000, , , 
60763, , 10.095799, -0.013696, -2.033068, -0.114958, 0.219955, 0.482803, -0.028973, 0.041649, 0.008246, -0.858887, 0.448730, 0.179688, 0.100954, -0.000136, -0.020352, 1.000000, -0.000145, 0.000208, 0.000041, 177.431606, -77.388973, 92.615438, , , 0.000000, , , 
60764, , 10.155983, 0.032044, -2.007660, -0.066194, 0.256570, 0.536491, -0.008117, 0.083366, 0.006211, -0.860840, 0.446533, 0.177734, 0.101551, 0.000323, -0.020119, 1.000000, -0.000041, 0.000417, 0.000031, 177.523024, -77.409560, 92.533139, , , 0.000000, , , 
60765, , 10.077248, -0.013632, -2.261107, -0.111371, -0.018332, 0.514508, -0.020291, 0.115468, -0.005003, -0.860840, 0.446533, 0.175537, 0.100759, -0.000141, -0.022669, 1.000000, -0.000101, 0.000577, -0.000025, 177.485266, -77.475647, 92.559965, , , 0.000000, , , 
60766, , 9.873982, -0.048140, -2.429513, -0.141696, -0.236948, 0.352160, -0.012098, 0.151487, -0.009664, -0.865234, 0.448730, 0.173584, 0.098721, -0.000488, -0.024370, 1.000000, -0.000060, 0.000757, -0.000048, 177.526282, -77.542818, 92.525872, , , 0.000000, , , 
60767, , 9.687568, -0.038006, -2.408860, -0.131363, -0.273673, 0.165331, -0.035539, 0.180838, -0.011373, -0.871582, 0.442383, 0.169434, 0.096854, -0.000390, -0.024176, 1.000000, -0.000178, 0.000904, -0.000057, 177.455467, -77.646179, 92.577599, , , 0.000000, , , 
60768, , 9.479007, -0.045550, -2.369000, -0.136043, -0.293524, -0.047386, -0.036573, 0.170552, -0.017680, -0.865479, 0.450928, 0.169189, 0.094770, -0.000468, -0.023771, 1.000000, -0.000183, 0.000853, -0.000088, 177.454545, -77.725684, 92.570952, , , 0.000000, , , 
60769, , 9.406056, 0.025616, -2.282863, -0.066833, -0.241462, -0.136778, -0.057550, 0.172608, -0.016656, -0.869385, 0.442139, 0.169434, 0.094041, 0.000242, -0.022910, 1.000000, -0.000288, 0.000863, -0.000083, 177.356426, -77.824265, 92.637712, , , 0.000000, , , 
60770, , 9.292117, -0.007573, -2.284598, -0.099086, -0.279959, -0.248448, -0.093282, 0.159093, -0.019817, -0.867188, 0.440186, 0.175781, 0.092903, -0.000096, -0.022920, 1.000000, -0.000466, 0.000795, -0.000099, 177.325523, -77.896478, 92.629036, , , 0.000000, , , 
60771, , 9.282087, -0.023665, -2.274494, -0.118976, -0.286603, -0.261001, -0.098422, 0.141847, -0.017257, -0.865234, 0.446533, 0.167236, 0.092805, -0.000256, -0.022811, 1.000000, -0.000492, 0.000709, -0.000086, 177.204235, -77.977474, 92.695537, , , 0.000000, , , 
60772, , 9.249085, -0.013266, -2.171901, -0.109244, -0.201091, -0.314766, -0.096611, 0.117655, -0.019984, -0.865234, 0.444336, 0.167236, 0.092478, -0.000152, -0.021773, 1.000000, -0.000483, 0.000588, -0.000100, 177.160021, -78.018404, 92.700347, , , 0.000000, , , 
60773, , 9.283146, -0.003210, -2.149732, -0.103455, -0.182646, -0.286194, -0.107851, 0.098072, -0.018165, -0.865234, 0.448730, 0.169189, 0.092821, -0.000052, -0.021543, 1.000000, -0.000539, 0.000490, -0.000091, 177.034944, -78.074265, 92.765157, , , 0.000000, , , 
60774, , 9.170986, 0.062849, -2.217689, -0.037294, -0.277298, -0.381315, -0.117656, 0.078427, -0.017333, -0.871582, 0.440186, 0.167480, 0.091701, 0.000607, -0.022213, 1.000000, -0.000588, 0.000392, -0.000087, 177.013518, -78.098084, 92.733842, , , 0.000000, , , 
60775, , 9.185666, 0.108961, -2.313918, 0.003653, -0.375599, -0.346883, -0.131395, 0.067041, -0.018295, -0.867188, 0.440186, 0.165283, 0.091849, 0.001066, -0.023171, 1.000000, -0.000657, 0.000335, -0.000091, 176.878254, -78.136175, 92.795282, , , 0.000000, , , 
60776, , 9.155035, 0.129682, -2.427589, 0.020625, -0.495264, -0.353356, -0.122381, 0.051708, -0.024638, -0.865234, 0.444336, 0.171387, 0.091544, 0.001271, -0.024300, 1.000000, -0.000612, 0.000259, -0.000123, 176.784766, -78.143129, 92.835552, , , 0.000000, , , 
60777, , 9.169760, 0.110488, -2.495752, -0.004544, -0.562750, -0.325392, -0.106644, 0.027294, -0.028596, -0.865234, 0.444336, 0.169434, 0.091694, 0.001078, -0.024971, 1.000000, -0.000533, 0.000136, -0.000143, 176.640423, -78.158149, 92.920764, , , 0.000000, , , 
60778, , 9.292433, 0.130194, -2.524875, 0.010777, -0.563179, -0.198949, -0.137679, 0.007813, -0.034066, -0.869385, 0.442139, 0.169434, 0.092924, 0.001269, -0.025253, 1.000000, -0.000688, 0.000039, -0.000170, 176.561488, -78.133618, 92.938659, , , 0.000000, , , 
60779, , 9.533427, 0.044364, -2.422892, -0.084259, -0.412476, 0.014895, -0.184172, -0.025640, -0.044232, -0.869385, 0.442139, 0.169434, 0.095337, 0.000400, -0.024217, 1.000000, -0.000921, -0.000128, -0.000221, 176.339224, -78.117702, 93.058107, , , 0.000000, , , 
60780, , 9.746641, -0.024794, -2.308964, -0.160874, -0.248438, 0.199371, -0.191997, -0.036628, -0.051728, -0.869385, 0.440186, 0.169434, 0.097471, -0.000295, -0.023072, 0.999999, -0.000960, -0.000183, -0.000259, 176.173010, -78.067322, 93.132772, , , 0.000000, , , 
60781, , 10.007337, -0.277420, -2.323632, -0.426059, -0.203111, 0.453774, -0.104592, -0.022279, -0.070203, -0.867188, 0.437988, 0.171631, 0.100075, -0.002821, -0.023224, 1.000000, -0.000523, -0.000111, -0.000351, 175.926640, -78.052156, 93.323505, , , 0.000000, , , 
60782, , 10.178438, -0.152259, -2.288439, -0.308600, -0.129829, 0.615574, 0.064720, 0.019847, -0.087424, -0.871582, 0.437988, 0.171631, 0.101781, -0.001560, -0.022895, 1.000000, 0.000324, 0.000099, -0.000437, 175.791199, -78.034563, 93.519141, , , 0.000000, , , 
60783, , 10.259072, 0.031118, -2.235271, -0.133768, -0.068297, 0.686045, 0.092862, 0.079713, -0.106143, -0.871582, 0.437988, 0.173828, 0.102582, 0.000267, -0.022393, 1.000000, 0.000464, 0.000399, -0.000531, 175.540437, -78.075882, 93.830019, , , 0.000000, , , 
60784, , 10.108245, -0.023713, -2.282052, -0.194109, -0.150421, 0.547072, 0.065376, 0.137271, -0.118492, -0.869385, 0.437988, 0.171631, 0.101067, -0.000290, -0.022890, 1.000000, 0.000327, 0.000686, -0.000592, 175.309095, -78.119652, 94.122003, , , 0.000000, , , 
60785, , 9.907735, -0.015232, -2.323074, -0.193458, -0.246946, 0.358924, 0.146773, 0.157600, -0.133866, -0.869141, 0.433594, 0.165527, 0.099059, -0.000202, -0.023309, 0.999999, 0.000734, 0.000788, -0.000669, 174.990900, -78.203494, 94.533202, , , 0.000000, , , 
60786, , 9.716237, 0.080307, -2.522281, -0.104535, -0.494575, 0.213181, 0.167664, 0.192628, -0.150941, -0.871338, 0.433594, 0.173828, 0.097139, 0.000751, -0.025316, 0.999999, 0.000838, 0.000963, -0.000755, 174.702959, -78.280500, 94.945690, , , 0.000000, , , 
60787, , 9.458932, 0.120098, -2.663574, -0.072684, -0.706218, -0.010832, 0.165440, 0.235879, -0.173373, -0.869141, 0.433594, 0.163330, 0.094559, 0.001141, -0.026746, 0.999999, 0.000827, 0.001179, -0.000867, 174.254071, -78.405806, 95.500979, , , 0.000000, , , 
60788, , 9.315248, 0.133215, -2.596397, -0.066545, -0.686775, -0.166097, 0.187823, 0.259542, -0.200053, -0.871338, 0.435791, 0.157227, 0.093120, 0.001263, -0.026084, 0.999998, 0.000939, 0.001298, -0.001000, 173.820778, -78.506547, 96.074715, , , 0.000000, , , 
60789, , 9.099222, 0.125054, -2.477099, -0.083845, -0.638271, -0.403490, 0.236567, 0.284399, -0.224690, -0.875488, 0.429443, 0.159424, 0.090958, 0.001178, -0.024899, 0.999998, 0.001183, 0.001422, -0.001123, 173.230631, -78.654163, 96.815166, , , 0.000000, , , 
60790, , 8.877394, 0.261520, -2.182474, 0.046892, -0.414838, -0.676751, 0.386622, 0.327258, -0.249540, -0.882080, 0.429443, 0.153076, 0.088741, 0.002547, -0.021965, 0.999996, 0.001933, 0.001636, -0.001248, 172.727942, -78.793565, 97.575555, , , 0.000000, , , 
60791, , 8.613745, 0.403199, -1.930897, 0.181272, -0.247356, -0.981300, 0.486575, 0.367459, -0.263740, -0.875488, 0.429443, 0.151123, 0.086107, 0.003966, -0.019457, 0.999994, 0.002433, 0.001837, -0.001319, 172.101235, -78.982516, 98.498451, , , 0.000000, , , 
60792, , 8.379824, 0.570161, -1.906913, 0.345031, -0.291939, -1.211613, 0.537295, 0.421137, -0.258216, -0.882080, 0.427246, 0.138672, 0.083765, 0.005645, -0.019230, 0.999993, 0.002686, 0.002106, -0.001291, 171.583237, -79.166038, 99.359244, , , 0.000000, , , 
60793, , 8.244004, 0.583521, -2.177359, 0.356922, -0.614843, -1.295677, 0.517448, 0.405250, -0.238514, -0.882080, 0.427246, 0.132324, 0.082403, 0.005794, -0.021926, 0.999994, 0.002587, 0.002026, -0.001193, 170.979723, -79.374958, 100.275317, , , 0.000000, , , 
60794, , 8.568745, 0.406978, -2.526741, 0.173162, -0.932748, -0.920368, 0.566784, 0.424600, -0.214753, -0.884277, 0.427246, 0.132324, 0.085638, 0.004050, -0.025438, 0.999993, 0.002834, 0.002123, -0.001074, 170.531565, -79.570018, 101.081232, , , 0.000000, , , 
60795, , 8.923223, 0.433860, -2.367868, 0.181814, -0.749214, -0.602669, 0.642811, 0.439831, -0.194281, -0.886230, 0.420898, 0.119873, 0.089184, 0.004328, -0.023861, 0.999992, 0.003214, 0.002199, -0.000971, 170.062319, -79.799825, 101.932639, , , 0.000000, , , 
60796, , 9.449308, 0.411322, -2.043728, 0.130338, -0.371176, -0.144153, 0.628182, 0.414456, -0.168415, -0.888428, 0.420898, 0.115723, 0.094454, 0.004098, -0.020620, 0.999993, 0.003141, 0.002072, -0.000842, 169.751444, -79.982570, 102.635417, , , 0.000000, , , 
60797, , 9.713372, 0.443996, -2.081095, 0.153669, -0.400497, 0.121775, 0.568651, 0.429514, -0.139813, -0.888428, 0.420898, 0.111572, 0.097092, 0.004432, -0.021007, 0.999993, 0.002843, 0.002148, -0.000699, 169.369253, -80.210214, 103.354221, , , 0.000000, , , 
60798, , 9.960821, 0.453305, -2.418887, 0.170375, -0.725102, 0.420568, 0.440927, 0.413331, -0.107582, -0.890625, 0.425293, 0.103027, 0.099560, 0.004533, -0.024385, 0.999995, 0.002205, 0.002067, -0.000538, 169.086001, -80.395591, 103.919868, , , 0.000000, , , 
60799, , 10.146247, 0.470977, -2.921722, 0.208400, -1.230537, 0.682398, 0.350837, 0.416571, -0.084943, -0.888184, 0.416504, 0.103271, 0.101403, 0.004718, -0.029420, 0.999996, 0.001754, 0.002083, -0.000425, 168.724970, -80.620542, 104.489787, , , 0.000000, , , 
60800, , 10.248604, 0.458774, -3.298927, 0.218137, -1.620483, 0.838772, 0.265387, 0.399028, -0.061501, -0.890625, 0.420898, 0.096924, 0.102421, 0.004600, -0.033188, 0.999997, 0.001327, 0.001995, -0.000308, 168.485027, -80.798534, 104.910531, , , 0.000000, , , 
60801, , 10.443571, 0.514615, -3.397145, 0.276235, -1.724168, 1.042007, 0.221297, 0.379771, -0.052240, -0.892822, 0.420898, 0.092773, 0.104372, 0.005157, -0.034164, 0.999998, 0.001106, 0.001899, -0.000261, 168.151832, -81.005605, 105.376429, , , 0.000000, , , 
60802, , 10.629262, 0.460339, -3.323426, 0.215800, -1.657431, 1.207498, 0.165179, 0.381010, -0.045131, -0.888428, 0.420898, 0.084473, 0.106230, 0.004607, -0.033433, 0.999998, 0.000826, 0.001905, -0.000226, 167.913316, -81.165793, 105.738802, , , 0.000000, , , 
60803, , 10.648897, 0.401123, -3.135793, 0.147779, -1.515554, 1.190685, 0.117396, 0.400879, -0.035965, -0.892822, 0.425293, 0.086426, 0.106427, 0.004011, -0.031569, 0.999998, 0.000587, 0.002004, -0.000180, 167.529142, -81.385814, 106.195539, , , 0.000000, , , 
60804, , 10.453473, 0.351780, -3.080186, 0.107630, -1.525457, 0.983035, 0.027010, 0.401564, -0.026936, -0.890625, 0.423096, 0.082275, 0.104473, 0.003508, -0.031011, 0.999998, 0.000135, 0.002008, -0.000135, 167.266137, -81.558735, 106.505198, , , 0.000000, , , 
60805, , 10.079964, 0.313002, -3.280205, 0.096643, -1.820265, 0.634347, -0.096325, 0.386116, -0.018019, -0.892822, 0.425293, 0.078125, 0.100736, 0.003105, -0.032998, 0.999998, -0.000482, 0.001931, -0.000090, 166.802070, -81.771941, 106.918448, , , 0.000000, , , 
60806, , 9.834481, 0.048026, -3.751523, -0.127901, -2.365972, 0.442991, -0.098830, 0.368868, -0.027170, -0.895020, 0.423096, 0.075928, 0.098275, 0.000448, -0.037697, 0.999998, -0.000494, 0.001844, -0.000136, 166.504457, -81.918072, 107.190279, , , 0.000000, , , 
60807, , 9.691586, 0.131894, -3.804906, -0.035232, -2.468615, 0.302951, 0.092024, 0.342144, -0.029820, -0.894775, 0.414551, 0.070068, 0.096851, 0.001322, -0.038214, 0.999998, 0.000460, 0.001711, -0.000149, 166.107693, -82.104352, 107.644159, , , 0.000000, , , 
60808, , 9.509878, 0.246826, -3.471568, 0.072412, -2.176440, 0.077118, 0.202144, 0.344731, -0.030430, -0.890625, 0.420898, 0.065674, 0.095039, 0.002489, -0.034877, 0.999998, 0.001011, 0.001724, -0.000152, 165.917092, -82.224532, 107.990867, , , 0.000000, , , 
60809, , 9.400541, 0.571000, -2.960714, 0.372787, -1.695292, -0.094202, 0.219925, 0.352767, -0.038765, -0.899170, 0.423096, 0.063477, 0.093954, 0.005724, -0.029767, 0.999998, 0.001100, 0.001764, -0.000194, 165.512966, -82.414720, 108.525758, , , 0.000000, , , 
60810, , 9.184874, 0.553195, -2.739267, 0.355086, -1.524988, -0.340636, 0.145063, 0.359412, -0.042385, -0.890625, 0.420898, 0.059326, 0.091800, 0.005532, -0.027554, 0.999998, 0.000725, 0.001797, -0.000212, 165.251758, -82.540454, 108.909865, , , 0.000000, , , 
60811, , 9.039364, 0.505394, -2.726279, 0.315192, -1.567206, -0.493753, 0.163937, 0.378355, -0.053812, -0.896973, 0.416748, 0.059570, 0.090343, 0.005052, -0.027430, 0.999998, 0.000820, 0.001892, -0.000269, 164.679529, -82.741586, 109.581508, , , 0.000000, , , 
60812, , 8.882065, 0.436399, -2.716923, 0.256722, -1.603269, -0.656994, 0.256283, 0.392504, -0.070191, -0.895020, 0.421143, 0.053223, 0.088769, 0.004368, -0.027338, 0.999997, 0.001281, 0.001963, -0.000351, 164.268055, -82.871747, 110.188947, , , 0.000000, , , 
60813, , 8.771628, 0.577123, -2.598236, 0.396241, -1.521950, -0.782077, 0.329702, 0.407110, -0.093368, -0.894775, 0.418945, 0.046875, 0.087666, 0.005773, -0.026151, 0.999996, 0.001649, 0.002036, -0.000467, 163.514683, -83.080672, 111.138258, , , 0.000000, , , 
60814, , 8.729829, 0.662221, -2.546962, 0.483016, -1.490788, -0.830504, 0.323498, 0.423339, -0.110152, -0.899170, 0.416748, 0.042725, 0.087248, 0.006616, -0.025644, 0.999996, 0.001617, 0.002117, -0.000551, 162.896142, -83.219775, 111.990550, , , 0.000000, , , 
60815, , 8.615740, 0.767232, -2.676622, 0.605216, -1.659192, -0.932113, 0.280794, 0.451802, -0.106969, -0.896973, 0.418945, 0.036377, 0.086101, 0.007664, -0.026950, 0.999996, 0.001404, 0.002259, -0.000535, 161.888258, -83.447569, 113.167151, , , 0.000000, , , 
60816, , 8.462586, 0.874980, -2.687227, 0.722174, -1.701811, -1.084325, 0.161059, 0.481975, -0.099641, -0.901367, 0.421143, 0.032227, 0.084565, 0.008729, -0.027069, 0.999997, 0.000805, 0.002410, -0.000498, 161.026391, -83.612912, 114.169895, , , 0.000000, , , 
60817, , 8.354546, 0.726139, -2.835319, 0.592070, -1.913075, -1.189799, 0.137540, 0.466609, -0.092253, -0.903564, 0.416748, 0.030273, 0.083482, 0.007242, -0.028543, 0.999997, 0.000688, 0.002333, -0.000461, 159.838730, -83.846648, 115.443831, , , 0.000000, , , 
60818, , 8.473620, 0.861769, -2.614823, 0.703311, -1.694222, -1.093913, 0.215817, 0.453412, -0.100591, -0.897217, 0.418945, 0.023926, 0.084681, 0.008603, -0.026331, 0.999997, 0.001079, 0.002267, -0.000503, 158.995552, -83.986351, 116.447896, , , 0.000000, , , 
60819, , 8.542537, 0.985509, -2.334721, 0.798195, -1.436489, -1.055042, 0.190483, 0.469510, -0.088768, -0.901367, 0.414551, 0.017822, 0.085375, 0.009840, -0.023538, 0.999997, 0.000952, 0.002348, -0.000444, 157.689088, -84.217048, 117.870839, , , 0.000000, , , 
60820, , 8.618769, 0.940280, -2.393502, 0.757325, -1.517286, -0.979776, 0.195577, 0.467564, -0.082800, -0.907715, 0.412598, 0.015869, 0.086135, 0.009391, -0.024127, 0.999997, 0.000978, 0.002338, -0.000414, 156.743200, -84.366063, 118.976486, , , 0.000000, , , 
60821, , 8.614931, 1.033954, -2.489414, 0.861551, -1.643500, -0.978676, 0.112532, 0.485465, -0.069540, -0.899170, 0.412598, 0.007324, 0.086092, 0.010324, -0.025097, 0.999997, 0.000563, 0.002427, -0.000348, 155.263866, -84.603371, 120.527249, , , 0.000000, , , 
60822, , 8.358693, 0.665769, -2.981515, 0.556996, -2.216860, -1.211783, -0.006396, 0.486395, -0.054783, -0.903320, 0.412598, 0.001221, 0.083516, 0.006634, -0.030019, 0.999997, -0.000032, 0.002432, -0.000274, 154.105700, -84.753741, 121.730618, , , 0.000000, , , 
60823, , 8.520881, 0.744142, -3.181750, 0.648002, -2.432463, -1.040811, 0.053992, 0.391237, -0.043309, -0.905518, 0.412598, 0.001221, 0.085148, 0.007432, -0.031982, 0.999998, 0.000270, 0.001956, -0.000217, 152.784657, -84.942464, 123.087810, , , 0.000000, , , 
60824, , 8.740563, 0.759010, -2.795492, 0.614909, -2.050230, -0.856871, 0.008426, 0.387466, -0.025603, -0.901123, 0.410400, -0.005127, 0.087352, 0.007580, -0.028124, 0.999998, 0.000042, 0.001937, -0.000128, 151.961313, -85.045277, 123.963497, , , 0.000000, , , 
60825, , 9.103952, 0.793748, -2.348751, 0.589083, -1.614004, -0.534948, -0.031396, 0.419070, -0.006727, -0.901367, 0.412598, -0.007080, 0.090990, 0.007931, -0.023679, 0.999998, -0.000157, 0.002095, -0.000034, 150.549674, -85.253208, 125.361867, , , 0.000000, , , 
60826, , 9.350068, 0.904720, -2.378012, 0.694179, -1.644170, -0.288413, -0.071779, 0.547554, 0.015854, -0.901367, 0.416748, -0.007324, 0.093434, 0.009046, -0.024039, 0.999996, -0.000359, 0.002738, 0.000079, 149.222807, -85.445076, 126.708055, , , 0.000000, , , 
60827, , 9.130447, 0.844288, -2.778725, 0.691875, -2.116849, -0.493934, -0.043934, 0.617909, 0.022755, -0.903564, 0.414795, -0.015625, 0.091217, 0.008447, -0.028071, 0.999995, -0.000220, 0.003090, 0.000114, 146.917494, -85.751739, 128.994627, , , 0.000000, , , 
60828, , 9.259958, 0.863014, -2.862747, 0.721424, -2.224704, -0.367213, 0.050132, 0.492049, 0.023595, -0.905762, 0.416992, -0.017822, 0.092528, 0.008648, -0.028853, 0.999997, 0.000251, 0.002460, 0.000118, 145.796952, -85.910283, 130.186014, , , 0.000000, , , 
60829, , 9.733273, 0.888393, -2.559581, 0.702849, -1.939524, 0.077782, 0.069965, 0.457451, 0.026809, -0.905518, 0.410400, -0.023926, 0.097273, 0.008906, -0.025815, 0.999997, 0.000350, 0.002287, 0.000134, 143.859542, -86.132623, 132.167928, , , 0.000000, , , 
60830, , 10.036508, 0.889850, -2.241102, 0.665820, -1.632256, 0.357765, 0.076931, 0.456826, 0.037136, -0.901123, 0.408203, -0.030029, 0.100312, 0.008926, -0.022637, 0.999997, 0.000385, 0.002284, 0.000186, 142.761459, -86.263760, 133.353428, , , 0.000000, , , 
60831, , 10.144374, 0.819800, -2.153042, 0.593459, -1.591093, 0.450452, 0.103347, 0.442263, 0.046688, -0.901367, 0.412598, -0.034424, 0.101394, 0.008233, -0.021750, 0.999997, 0.000517, 0.002211, 0.000233, 140.693045, -86.478447, 135.484916, , , 0.000000, , , 
60832, , 10.390409, 0.997196, -2.660923, 0.824151, -2.087924, 0.722809, 0.169693, 0.412119, 0.044538, -0.901367, 0.416992, -0.030273, 0.103847, 0.010018, -0.026815, 0.999997, 0.000848, 0.002061, 0.000223, 139.559427, -86.588782, 136.786762, , , 0.000000, , , 
60833, , 10.584649, 1.201175, -3.301896, 1.104037, -2.731147, 0.943796, 0.253588, 0.370217, 0.039578, -0.899170, 0.410400, -0.040527, 0.105783, 0.012075, -0.033200, 0.999997, 0.001268, 0.001851, 0.000198, 137.600364, -86.761988, 138.894232, , , 0.000000, , , 
60834, , 10.890582, 1.617985, -3.792624, 1.578750, -3.167369, 1.281539, 0.338263, 0.319181, 0.046175, -0.903564, 0.410400, -0.051025, 0.108841, 0.016269, -0.038073, 0.999997, 0.001691, 0.001596, 0.000231, 137.261221, -86.827011, 139.485764, , , 0.000000, , , 
60835, , 11.043235, 2.185344, -3.676208, 2.143438, -3.005105, 1.439788, 0.288229, 0.298511, 0.069706, -0.899170, 0.414795, -0.051025, 0.110370, 0.021945, -0.036895, 0.999998, 0.001441, 0.001493, 0.000349, 135.811465, -86.977653, 141.102516, , , 0.000000, , , 
60836, , 10.724984, 2.298338, -3.388845, 2.250644, -2.717968, 1.111556, 0.027059, 0.237623, 0.110874, -0.897217, 0.421143, -0.049072, 0.107197, 0.023047, -0.034013, 0.999999, 0.000135, 0.001188, 0.000554, 136.107071, -87.029018, 140.893750, , , 0.000000, , , 
60837, , 10.814816, 1.875691, -3.395990, 1.843969, -2.790414, 1.179334, -0.068135, 0.096159, 0.140619, -0.901367, 0.414795, -0.046875, 0.108119, 0.018821, -0.034018, 1.000000, -0.000341, 0.000481, 0.000703, 136.488133, -87.123482, 140.472596, , , 0.000000, , , 
60838, , 10.969940, 1.991776, -2.920916, 1.906422, -2.280079, 1.323079, -0.171447, -0.016125, 0.154645, -0.897217, 0.418945, -0.051270, 0.109686, 0.019978, -0.029217, 0.999999, -0.000857, -0.000081, 0.000773, 139.291686, -87.077998, 137.623386, , , 0.000000, , , 
60839, , 10.901973, 1.131435, -3.577979, 1.145226, -3.028934, 1.252983, -0.093962, -0.164591, 0.145198, -0.899414, 0.418945, -0.049072, 0.109041, 0.011377, -0.035695, 0.999999, -0.000470, -0.000823, 0.000726, 141.688702, -87.056915, 135.168741, , , 0.000000, , , 
60840, , 10.730507, 1.571045, -3.703958, 1.612088, -3.052213, 1.115087, 0.222471, -0.351567, 0.105926, -0.895264, 0.423340, -0.038818, 0.107362, 0.015808, -0.036833, 0.999998, 0.001112, -0.001758, 0.000530, 145.988864, -86.822022, 131.061899, , , 0.000000, , , 
60841, , 10.682819, 1.395524, -3.453815, 1.418468, -2.773873, 1.063533, 0.112142, -0.562587, 0.083564, -0.895264, 0.423340, -0.038818, 0.106919, 0.014019, -0.034230, 0.999996, 0.000561, -0.002813, 0.000418, 149.748968, -86.572884, 127.359305, , , 0.000000, , , 
60842, , 11.460505, 0.885265, -2.765249, 0.801443, -2.018973, 1.808600, 0.248903, -0.676829, 0.082038, -0.895264, 0.423340, -0.036621, 0.114694, 0.008934, -0.027253, 0.999993, 0.001245, -0.003384, 0.000410, 154.196719, -86.134235, 123.111180, , , 0.000000, , , 
60843, , 12.496588, 0.967082, -0.615634, 0.577224, 0.259453, 2.720387, 0.130440, -0.614555, 0.092406, -0.895264, 0.425537, -0.028320, 0.124980, 0.009732, -0.005766, 0.999995, 0.000652, -0.003073, 0.000462, 157.045600, -85.833442, 120.329525, , , 0.000000, , , 
60844, , 13.514840, -0.064568, -0.209137, -0.542058, 0.694872, 3.675148, 0.045210, -0.541494, 0.054016, -0.897461, 0.425537, -0.024170, 0.135154, -0.000609, -0.001726, 0.999996, 0.000226, -0.002707, 0.000270, 159.359641, -85.441794, 118.105330, , , 0.000000, , , 
60845, , 12.978963, 0.498154, 0.455507, -0.053755, 1.454263, 3.102074, 0.161762, -0.441666, 0.017262, -0.892822, 0.421143, -0.017822, 0.129779, 0.004989, 0.004846, 0.999997, 0.000809, -0.002208, 0.000086, 160.638136, -85.205331, 116.914820, , , 0.000000, , , 
60846, , 12.286593, -0.079219, -0.031411, -0.551573, 0.930107, 2.426508, -0.100004, -0.547781, -0.006752, -0.893066, 0.423340, -0.015869, 0.122866, -0.000796, 0.000023, 0.999996, -0.000500, -0.002739, -0.000034, 161.949180, -84.793398, 115.610982, , , 0.000000, , , 
60847, , 11.398240, -0.191194, -0.416871, -0.584711, 0.517193, 1.568028, 0.122907, -0.383447, 0.005236, -0.895264, 0.427490, -0.011719, 0.113990, -0.001906, -0.003951, 0.999998, 0.000615, -0.001917, 0.000026, 162.778413, -84.582665, 114.848090, , , 0.000000, , , 
60848, , 10.505104, -0.058790, 0.220583, -0.508443, 1.140246, 0.620461, 0.100063, -0.252677, 0.048333, -0.903809, 0.429688, -0.011963, 0.105048, -0.000564, 0.002338, 0.999999, 0.000500, -0.001263, 0.000242, 163.755367, -84.352729, 113.985897, , , 0.000000, , , 
60849, , 10.477874, -0.207661, 1.707181, -0.848636, 2.611612, 0.444148, -0.138963, -0.249235, 0.064965, -0.893066, 0.425537, -0.011719, 0.104758, -0.002031, 0.017204, 0.999999, -0.000695, -0.001246, 0.000325, 164.436522, -84.223166, 113.220464, , , 0.000000, , , 
60850, , 10.975415, -0.526582, 2.900863, -1.337998, 3.836188, 0.800765, -0.397205, -0.240631, 0.048984, -0.895264, 0.425537, -0.003418, 0.109720, -0.005181, 0.029151, 0.999997, -0.001986, -0.001203, 0.000245, 164.958016, -84.007845, 112.503931, , , 0.000000, , , 
60851, , 11.420782, -0.490310, 2.897824, -1.304518, 3.911950, 1.235698, -0.562935, -0.236428, 0.032467, -0.893066, 0.427490, 0.000732, 0.114174, -0.004803, 0.029127, 0.999995, -0.002815, -0.001182, 0.000162, 165.145539, -83.879251, 111.990119, , , 0.000000, , , 
60852, , 11.680338, -0.580884, 1.424398, -1.219851, 2.514202, 1.632282, -0.370343, -0.199475, 0.009955, -0.888672, 0.423340, 0.002930, 0.116789, -0.005776, 0.014371, 0.999998, -0.001852, -0.000997, 0.000050, 165.367573, -83.694781, 111.596199, , , 0.000000, , , 
60853, , 11.220776, 0.650865, 1.443619, 0.019866, 2.661176, 1.202356, -0.189276, -0.199720, -0.009005, -0.890869, 0.427490, 0.007080, 0.112194, 0.006517, 0.014542, 0.999999, -0.000946, -0.000999, -0.000045, 165.483897, -83.580093, 111.369096, , , 0.000000, , , 
60854, , 10.776319, 0.482317, 0.802199, -0.058721, 1.999340, 0.817661, -0.299505, -0.327463, 0.012220, -0.895020, 0.421143, 0.009277, 0.107750, 0.004842, 0.008191, 0.999998, -0.001498, -0.001637, 0.000061, 165.865932, -83.341134, 110.870330, , , 0.000000, , , 
60855, , 10.818545, -0.097324, 0.367953, -0.586790, 1.538606, 0.886569, -0.126303, -0.275939, 0.009152, -0.892822, 0.423340, 0.013428, 0.108180, -0.000966, 0.003829, 0.999999, -0.000632, -0.001380, 0.000046, 166.171172, -83.186232, 110.489115, , , 0.000000, , , 
60856, , 10.606303, -0.028947, 0.920516, -0.578372, 2.102964, 0.607718, -0.012525, -0.190786, 0.044979, -0.893066, 0.429688, 0.011230, 0.106054, -0.000265, 0.009306, 1.000000, -0.000063, -0.000954, 0.000225, 166.579304, -83.026226, 110.124783, , , 0.000000, , , 
60857, , 10.650888, -0.333646, 0.824042, -0.867841, 2.001966, 0.650137, -0.039317, -0.265790, 0.072759, -0.895020, 0.423340, 0.017578, 0.106499, -0.003296, 0.008383, 0.999999, -0.000197, -0.001329, 0.000364, 167.175164, -82.884505, 109.500682, , , 0.000000, , , 
60858, , 10.740122, -0.270947, 0.298373, -0.746221, 1.534336, 0.798702, 0.025881, -0.193721, 0.101330, -0.893066, 0.431885, 0.017334, 0.107400, -0.002655, 0.003087, 0.999999, 0.000129, -0.000969, 0.000507, 167.844858, -82.742717, 108.873507, , , 0.000000, , , 
60859, , 10.764672, -0.483032, -0.418164, -0.865718, 0.829312, 0.904078, -0.075739, -0.206149, 0.135350, -0.893311, 0.434082, 0.017334, 0.107654, -0.004759, -0.004069, 0.999999, -0.000379, -0.001031, 0.000677, 168.590804, -82.639968, 108.076672, , , 0.000000, , , 
60860, , 10.413893, -0.479633, -0.808099, -0.791068, 0.425893, 0.604847, 0.103213, -0.078911, 0.153740, -0.888916, 0.431885, 0.019531, 0.104146, -0.004712, -0.008042, 0.999999, 0.000516, -0.000395, 0.000769, 169.444481, -82.577921, 107.286852, , , 0.000000, , , 
60861, , 9.905845, -0.331076, -0.706933, -0.619415, 0.491153, 0.092371, -0.023869, -0.081285, 0.181275, -0.886719, 0.431885, 0.025635, 0.099064, -0.003222, -0.007029, 0.999999, -0.000119, -0.000406, 0.000906, 170.286243, -82.547350, 106.423115, , , 0.000000, , , 
60862, , 9.258988, -0.177560, -0.798974, -0.416700, 0.353257, -0.533663, -0.160486, -0.066221, 0.204180, -0.888916, 0.431885, 0.023682, 0.092594, -0.001687, -0.007958, 0.999999, -0.000802, -0.000331, 0.001021, 171.177481, -82.492654, 105.466218, , , 0.000000, , , 
60863, , 8.740418, -0.457583, -1.289187, -0.604114, -0.217154, -0.989187, -0.191478, -0.095659, 0.237553, -0.888916, 0.438232, 0.023438, 0.087416, -0.004484, -0.012846, 0.999999, -0.000957, -0.000478, 0.001188, 172.156392, -82.455025, 104.367059, , , 0.000000, , , 
60864, , 8.405157, -0.329848, -1.313169, -0.447506, -0.251552, -1.314670, -0.235469, -0.119142, 0.252625, -0.884521, 0.433838, 0.029785, 0.084063, -0.003208, -0.013078, 0.999998, -0.001177, -0.000596, 0.001263, 173.183524, -82.370479, 103.224107, , , 0.000000, , , 
60865, , 8.086303, -0.229671, -1.237481, -0.329602, -0.194819, -1.637984, -0.238796, -0.092508, 0.261100, -0.884521, 0.436035, 0.025635, 0.080872, -0.002206, -0.012335, 0.999998, -0.001194, -0.000463, 0.001305, 174.205607, -82.331003, 102.053700, , , 0.000000, , , 
60866, , 7.666258, -0.203116, -1.348223, -0.264655, -0.340781, -2.038096, -0.217916, -0.116262, 0.247646, -0.884766, 0.438232, 0.031738, 0.076673, -0.001951, -0.013436, 0.999998, -0.001090, -0.000581, 0.001238, 175.146047, -82.242594, 101.033993, , , 0.000000, , , 
60867, , 7.348870, -0.250369, -1.389892, -0.285216, -0.416698, -2.346405, -0.203513, -0.139448, 0.227569, -0.878174, 0.438232, 0.029785, 0.073501, -0.002434, -0.013845, 0.999999, -0.001018, -0.000697, 0.001138, 176.031311, -82.169634, 100.021671, , , 0.000000, , , 
60868, , 6.966472, -0.375444, -1.117143, -0.417914, -0.196918, -2.762351, -0.172766, -0.142745, 0.205783, -0.880615, 0.446777, 0.037842, 0.069676, -0.003692, -0.011118, 0.999999, -0.000864, -0.000714, 0.001029, 176.786213, -82.063089, 99.222594, , , 0.000000, , , 
60869, , 6.655715, -0.373485, -0.964089, -0.414360, -0.075667, -3.090332, -0.136046, -0.158043, 0.185328, -0.878418, 0.446777, 0.031494, 0.066568, -0.003680, -0.009586, 0.999999, -0.000680, -0.000790, 0.000927, 177.502873, -81.974541, 98.419098, , , 0.000000, , , 
60870, , 6.432183, -0.418571, -0.839627, -0.457958, 0.026456, -3.328652, -0.087361, -0.164022, 0.168163, -0.874023, 0.446777, 0.035645, 0.064332, -0.004135, -0.008342, 0.999999, -0.000437, -0.000820, 0.000841, 178.185525, -81.856281, 97.721549, , , 0.000000, , , 
60871, , 6.273929, -0.471707, -0.874124, -0.495588, -0.023030, -3.480024, -0.088548, -0.158010, 0.165248, -0.876465, 0.451172, 0.035645, 0.062750, -0.004669, -0.008690, 0.999999, -0.000443, -0.000790, 0.000826, 178.814540, -81.764811, 97.033672, , , 0.000000, , , 
60872, , 6.078400, -0.551847, -1.093036, -0.540823, -0.261520, -3.641358, -0.046218, -0.161643, 0.165087, -0.878418, 0.446777, 0.039795, 0.060797, -0.005471, -0.010880, 0.999999, -0.000231, -0.000808, 0.000825, 179.483017, -81.653582, 96.392155, , , 0.000000, , , 
60873, , 6.099185, -0.678591, -1.324026, -0.635023, -0.488806, -3.586020, -0.030356, -0.107214, 0.169983, -0.872070, 0.451172, 0.041748, 0.061005, -0.006736, -0.013207, 0.999999, -0.000152, -0.000536, 0.000850, -179.866412, -81.589035, 95.715879, , , 0.000000, , , 
60874, , 5.934395, -0.946229, -1.436594, -0.877379, -0.641531, -3.730350, 0.079692, -0.103890, 0.165573, -0.872070, 0.451172, 0.043945, 0.059359, -0.009407, -0.014339, 0.999999, 0.000398, -0.000519, 0.000828, -179.188104, -81.502580, 95.136007, , , 0.000000, , , 
60875, , 6.067778, -0.975743, -1.195656, -0.922579, -0.381273, -3.631824, 0.208364, -0.101776, 0.147707, -0.876465, 0.451172, 0.043945, 0.060691, -0.009700, -0.011936, 0.999999, 0.001042, -0.000509, 0.000739, -178.507750, -81.439098, 94.567663, , , 0.000000, , , 
60876, , 6.491183, -1.034311, -0.848415, -1.012587, 0.025443, -3.262949, 0.183679, -0.112094, 0.124162, -0.867920, 0.455322, 0.041748, 0.064923, -0.010295, -0.008457, 0.999999, 0.000918, -0.000560, 0.000621, -177.949137, -81.342367, 94.163734, , , 0.000000, , , 
60877, , 6.977310, -0.898341, -0.947374, -0.863342, 0.022599, -2.767014, 0.263623, -0.103302, 0.094104, -0.872070, 0.453125, 0.041748, 0.069782, -0.008938, -0.009449, 0.999999, 0.001318, -0.000517, 0.000471, -177.457315, -81.277523, 93.817890, , , 0.000000, , , 
60878, , 7.501155, -1.177012, -1.632436, -1.059065, -0.595040, -2.141845, 0.364898, -0.087678, 0.077042, -0.872314, 0.457520, 0.037598, 0.075023, -0.011711, -0.016313, 0.999998, 0.001824, -0.000438, 0.000385, -176.941976, -81.202431, 93.575491, , , 0.000000, , , 
60879, , 7.902445, -0.706840, -1.520817, -0.594733, -0.368619, -1.764611, 0.615582, -0.006627, 0.085142, -0.867920, 0.457520, 0.037598, 0.079028, -0.006988, -0.015227, 0.999995, 0.003078, -0.000033, 0.000426, -176.272865, -81.192189, 93.254209, , , 0.000000, , , 
60880, , 7.966381, -0.277720, -1.111305, -0.203773, 0.098315, -1.767555, 0.470966, -0.044120, 0.089420, -0.874268, 0.453369, 0.031250, 0.079667, -0.002715, -0.011102, 0.999997, 0.002355, -0.000221, 0.000447, -175.633420, -81.143432, 92.944414, , , 0.000000, , , 
60881, , 8.235424, -0.400052, -1.480574, -0.268436, -0.234619, -1.443265, 0.328666, -0.011331, 0.087427, -0.870117, 0.457520, 0.031250, 0.082357, -0.003940, -0.014808, 0.999999, 0.001643, -0.000057, 0.000437, -175.125196, -81.129368, 92.619557, , , 0.000000, , , 
60882, , 8.720673, -1.014925, -2.204832, -0.774167, -0.945798, -0.843428, 0.332645, -0.035091, 0.067886, -0.872314, 0.459717, 0.033203, 0.087214, -0.010083, -0.022050, 0.999999, 0.001663, -0.000175, 0.000339, -174.714368, -81.088954, 92.466774, , , 0.000000, , , 
60883, , 9.161030, -0.960512, -2.565254, -0.659593, -1.224597, -0.352621, 0.539282, 0.030110, 0.025593, -0.872559, 0.466064, 0.031006, 0.091608, -0.009524, -0.025692, 0.999996, 0.002696, 0.000151, 0.000128, -174.299254, -81.101227, 92.358323, , , 0.000000, , , 
60884, , 9.818729, -1.058136, -2.696369, -0.723903, -1.261336, 0.320549, 0.564392, -0.082367, 0.000478, -0.872314, 0.461914, 0.029053, 0.098198, -0.010505, -0.026953, 0.999996, 0.002822, -0.000412, 0.000002, -173.948394, -81.029022, 92.372803, , , 0.000000, , , 
60885, , 10.599900, -0.919603, -3.012942, -0.529380, -1.418041, 1.141318, 0.664283, -0.173057, -0.001596, -0.872559, 0.466064, 0.026855, 0.106025, -0.009097, -0.030068, 0.999994, 0.003321, -0.000865, -0.000008, -173.638704, -80.927042, 92.443588, , , 0.000000, , , 
60886, , 11.407421, -1.108944, -3.683637, -0.596813, -1.947288, 2.052387, 0.661453, -0.263273, 0.005507, -0.865967, 0.463867, 0.029053, 0.114123, -0.010965, -0.036723, 0.999994, 0.003307, -0.001316, 0.000028, -173.279733, -80.750357, 92.506844, , , 0.000000, , , 
60887, , 11.841947, -1.096518, -4.408434, -0.445975, -2.548882, 2.603933, 0.761408, -0.315937, 0.019428, -0.868164, 0.461914, 0.031006, 0.118490, -0.010786, -0.043938, 0.999992, 0.003807, -0.001580, 0.000097, -172.906428, -80.565798, 92.569631, , , 0.000000, , , 
60888, , 11.900972, -0.661081, -4.645626, 0.061458, -2.648069, 2.702730, 0.872770, -0.365948, 0.027945, -0.872314, 0.461914, 0.029053, 0.119095, -0.006392, -0.046267, 0.999989, 0.004364, -0.001830, 0.000140, -172.385576, -80.321249, 92.606082, , , 0.000000, , , 
60889, , 11.985949, -0.451254, -4.381047, 0.249037, -2.286356, 2.747981, 0.607531, -0.456599, 0.031856, -0.868164, 0.464111, 0.022705, 0.119960, -0.004361, -0.043550, 0.999993, 0.003038, -0.002283, 0.000159, -172.134667, -80.055969, 92.703675, , , 0.000000, , , 
60890, , 11.452697, -0.933645, -4.768066, -0.125193, -2.771545, 2.314673, 0.597972, -0.539859, 0.031700, -0.861572, 0.463867, 0.029053, 0.114657, -0.009176, -0.047399, 0.999992, 0.002990, -0.002699, 0.000158, -171.883651, -79.714266, 92.856144, , , 0.000000, , , 
60891, , 10.883361, -1.207850, -5.054858, -0.316626, -3.126457, 1.831298, 0.597793, -0.744082, 0.007461, -0.870361, 0.463867, 0.037354, 0.109021, -0.011924, -0.050179, 0.999989, 0.002989, -0.003720, 0.000037, -171.842210, -79.288021, 93.161321, , , 0.000000, , , 
60892, , 10.836297, -1.450928, -5.315709, -0.489608, -3.327338, 1.869575, 0.460366, -1.007988, -0.030014, -0.868164, 0.463867, 0.043701, 0.108627, -0.014404, -0.052643, 0.999985, 0.002302, -0.005040, -0.000150, -172.013810, -78.678067, 93.673860, , , 0.000000, , , 
60893, , 11.581947, -1.326227, -5.319529, -0.385229, -3.030734, 2.631675, 0.358014, -1.206096, -0.074793, -0.865723, 0.457520, 0.054199, 0.116133, -0.013211, -0.052519, 0.999980, 0.001790, -0.006030, -0.000374, -172.464773, -77.995473, 94.342742, , , 0.000000, , , 
60894, , 12.362950, -1.197164, -4.757566, -0.407721, -2.139530, 3.308439, 0.258793, -1.303680, -0.086384, -0.861572, 0.463867, 0.060303, 0.123931, -0.011964, -0.046784, 0.999978, 0.001294, -0.006518, -0.000432, -172.937705, -77.211011, 95.047164, , , 0.000000, , , 
60895, , 13.520933, -0.442712, -3.830276, 0.077070, -0.665201, 4.231207, 0.190292, -1.409689, -0.077403, -0.865967, 0.466064, 0.066406, 0.135473, -0.004444, -0.037353, 0.999975, 0.000951, -0.007048, -0.000387, -173.424366, -76.410552, 95.657921, , , 0.000000, , , 
60896, , 13.886098, 0.345022, -2.649274, 0.548561, 0.900050, 4.288648, -0.096323, -1.281190, -0.059231, -0.863770, 0.468262, 0.085205, 0.139028, 0.003397, -0.025604, 0.999979, -0.000482, -0.006406, -0.000296, -173.853053, -75.646070, 96.125914, , , 0.000000, , , 
60897, , 13.439528, 0.814408, -1.560320, 0.743241, 2.086532, 3.559313, -0.450458, -1.265317, -0.042791, -0.865967, 0.463867, 0.087402, 0.134492, 0.008081, -0.014771, 0.999977, -0.002252, -0.006327, -0.000214, -174.482773, -74.923598, 96.509080, , , 0.000000, , , 
60898, , 13.846038, 0.606650, -0.726633, 0.316286, 3.093298, 3.712789, -0.559698, -1.070180, -0.019955, -0.859375, 0.463867, 0.102051, 0.138497, 0.006034, -0.006542, 0.999982, -0.002798, -0.005351, -0.000100, -174.969301, -74.280300, 96.750813, , , 0.000000, , , 
60899, , 14.014168, 0.006470, 0.975046, -0.640379, 4.715860, 3.404649, -0.094080, -0.395906, -0.008024, -0.854980, 0.461670, 0.106201, 0.140122, 0.000064, 0.010028, 0.999998, -0.000470, -0.001980, -0.000040, -175.106422, -74.050984, 96.836276, , , 0.000000, , , 
60900, , 12.386158, 0.665853, 2.570715, -0.270380, 5.926474, 1.379838, 0.248625, 0.157725, -0.007130, -0.859375, 0.463867, 0.106201, 0.123882, 0.006622, 0.025618, 0.999999, 0.001243, 0.000789, -0.000036, -174.866342, -74.120626, 96.824106, , , 0.000000, , , 
60901, , 10.828003, 0.819429, 0.059459, 0.437587, 3.158142, 0.567837, 0.092993, 0.128353, -0.030421, -0.859375, 0.463867, 0.106201, 0.108282, 0.008178, 0.000529, 1.000000, 0.000465, 0.000642, -0.000152, -174.848509, -74.191729, 96.859950, , , 0.000000, , , 
60902, , 10.372319, 0.246051, -1.010384, 0.108691, 1.909195, 0.434731, 0.348133, -0.008570, -0.058752, -0.861328, 0.459473, 0.095947, 0.103724, 0.002448, -0.010095, 0.999998, 0.001741, -0.000043, -0.000294, -174.695165, -74.170461, 96.970865, , , 0.000000, , , 
60903, , 10.260829, 0.367613, 0.800855, -0.154444, 3.611331, -0.169268, 0.645377, -0.083379, -0.076759, -0.857178, 0.461670, 0.097900, 0.102606, 0.003611, 0.008063, 0.999995, 0.003227, -0.000417, -0.000384, -174.492651, -74.123319, 97.143740, , , 0.000000, , , 
60904, , 10.224592, -0.281862, 2.082929, -1.084084, 4.661956, -0.536309, 0.702119, 0.043698, -0.091189, -0.861328, 0.459473, 0.095947, 0.102249, -0.002938, 0.020797, 0.999994, 0.003511, 0.000218, -0.000456, -174.210086, -74.149587, 97.345015, , , 0.000000, , , 
60905, , 10.155965, -0.707505, 2.151354, -1.533555, 4.598469, -0.605368, 0.659057, 0.083004, -0.114455, -0.859375, 0.461670, 0.093750, 0.101564, -0.007204, 0.021448, 0.999994, 0.003295, 0.000415, -0.000572, -174.042476, -74.199942, 97.562344, , , 0.000000, , , 
60906, , 10.403006, -0.927160, 1.187934, -1.554154, 3.697065, -0.096226, 0.357487, 0.083917, -0.114955, -0.867920, 0.461670, 0.089600, 0.104030, -0.009353, 0.011819, 0.999998, 0.001787, 0.000420, -0.000575, -173.998047, -74.249969, 97.784390, , , 0.000000, , , 
60907, , 10.615295, -1.392641, -0.024596, -1.742286, 2.495463, 0.451893, 0.326120, 0.121524, -0.128031, -0.867920, 0.459473, 0.087646, 0.106144, -0.013994, -0.000333, 0.999998, 0.001631, 0.000608, -0.000640, -174.041548, -74.323204, 98.022757, , , 0.000000, , , 
60908, , 10.980114, -1.350668, -0.919506, -1.508760, 1.740519, 1.046725, 0.424301, 0.226920, -0.140596, -0.867920, 0.461670, 0.085449, 0.109781, -0.013564, -0.009348, 0.999997, 0.002122, 0.001135, -0.000703, -173.994417, -74.462142, 98.258532, , , 0.000000, , , 
60909, , 11.166838, -0.298241, -0.845362, -0.516433, 2.081410, 1.182893, 0.543803, 0.289611, -0.144799, -0.870117, 0.461670, 0.079102, 0.111654, -0.003040, -0.008624, 0.999995, 0.002719, 0.001448, -0.000724, -173.914706, -74.632272, 98.498190, , , 0.000000, , , 
60910, , 11.172081, 0.834444, -1.478502, 0.735293, 1.742717, 1.328222, 0.352276, 0.249930, -0.146735, -0.863525, 0.459473, 0.074951, 0.111708, 0.008289, -0.014910, 0.999997, 0.001761, 0.001250, -0.000734, -173.898264, -74.785260, 98.716504, , , 0.000000, , , 
60911, , 10.725715, 1.265131, -2.366915, 1.388407, 0.882898, 1.120591, 0.222806, 0.227041, -0.134220, -0.863525, 0.455322, 0.075195, 0.107239, 0.012606, -0.023777, 0.999999, 0.001114, 0.001135, -0.000671, -173.998743, -74.919120, 98.951963, , , 0.000000, , , 
60912, , 9.830195, 1.355440, -1.795867, 1.365531, 1.187782, 0.107976, 0.174577, 0.200397, -0.136787, -0.865723, 0.453125, 0.064697, 0.098293, 0.013503, -0.018045, 0.999999, 0.000873, 0.001002, -0.000684, -174.077591, -75.044373, 99.180513, , , 0.000000, , , 
60913, , 9.568294, 1.070770, -1.755991, 1.084725, 1.067891, -0.144944, 0.141714, 0.161464, -0.146958, -0.865723, 0.459717, 0.066650, 0.095677, 0.010650, -0.017630, 0.999999, 0.000709, 0.000807, -0.000735, -174.271696, -75.141345, 99.464515, , , 0.000000, , , 
60914, , 8.974388, 0.849736, -1.797473, 0.901960, 0.804207, -0.700482, 0.168339, 0.183870, -0.163192, -0.869873, 0.453125, 0.064697, 0.089734, 0.008439, -0.018050, 0.999999, 0.000842, 0.000919, -0.000816, -174.421187, -75.267110, 99.766521, , , 0.000000, , , 
60915, , 8.420683, 0.777205, -1.754913, 0.836806, 0.669977, -1.242826, 0.102180, 0.164033, -0.174826, -0.865479, 0.448730, 0.066895, 0.084199, 0.007707, -0.017614, 0.999999, 0.000511, 0.000820, -0.000874, -174.704576, -75.366613, 100.119145, , , 0.000000, , , 
60916, , 7.908349, 0.334140, -1.783012, 0.430786, 0.383128, -1.719457, -0.003513, 0.173958, -0.186404, -0.867676, 0.453125, 0.060547, 0.079071, 0.003267, -0.017899, 0.999999, -0.000018, 0.000870, -0.000932, -175.047425, -75.479927, 100.505543, , , 0.000000, , , 
60917, , 7.537478, 0.065487, -1.550536, 0.117577, 0.420481, -2.129501, -0.051077, 0.188950, -0.187791, -0.869873, 0.450928, 0.060547, 0.075361, 0.000580, -0.015577, 0.999999, -0.000255, 0.000945, -0.000939, -175.452625, -75.593196, 100.892932, , , 0.000000, , , 
60918, , 7.118481, -0.004880, -1.617830, 0.079118, 0.218383, -2.516375, -0.033508, 0.200206, -0.184618, -0.872070, 0.448975, 0.056641, 0.071168, -0.000117, -0.016250, 0.999999, -0.000168, 0.001001, -0.000923, -175.783186, -75.723846, 101.253122, , , 0.000000, , , 
60919, , 6.779363, 0.217021, -1.734487, 0.331187, 0.070263, -2.819787, -0.054978, 0.175802, -0.159958, -0.871826, 0.446777, 0.056641, 0.067780, 0.002111, -0.017405, 0.999999, -0.000275, 0.000879, -0.000800, -176.141676, -75.827286, 101.589619, , , 0.000000, , , 
60920, , 6.562348, 0.560646, -2.137392, 0.772369, -0.281513, -2.937270, -0.075701, 0.146432, -0.130093, -0.874268, 0.451172, 0.056396, 0.065611, 0.005556, -0.021424, 0.999999, -0.000379, 0.000732, -0.000650, -176.407193, -75.925610, 101.854543, , , 0.000000, , , 
60921, , 6.260529, 0.754124, -2.289968, 1.008342, -0.456170, -3.195888, -0.018438, 0.145926, -0.099151, -0.871826, 0.446777, 0.054443, 0.062592, 0.007508, -0.022946, 1.000000, -0.000092, 0.000730, -0.000496, -176.618070, -76.009084, 102.060206, , , 0.000000, , , 
60922, , 6.037405, 0.839617, -2.102573, 1.052736, -0.320264, -3.459326, 0.085738, 0.124303, -0.090716, -0.878418, 0.446777, 0.060791, 0.060365, 0.008378, -0.021060, 1.000000, 0.000429, 0.000622, -0.000454, -176.689226, -76.089942, 102.218019, , , 0.000000, , , 
60923, , 5.929350, 1.108297, -2.029342, 1.296870, -0.209691, -3.585497, 0.190326, 0.047985, -0.083715, -0.878174, 0.442383, 0.054688, 0.059293, 0.011077, -0.020297, 0.999999, 0.000952, 0.000240, -0.000419, -176.760589, -76.116720, 102.403073, , , 0.000000, , , 
60924, , 6.020298, 1.539618, -1.972222, 1.690730, -0.016293, -3.516241, 0.104033, -0.076228, -0.070879, -0.878174, 0.442383, 0.052490, 0.060216, 0.015385, -0.019691, 1.000000, 0.000520, -0.000381, -0.000354, -176.853420, -76.072577, 102.570827, , , 0.000000, , , 
60925, , 6.418326, 1.930928, -1.625520, 1.949769, 0.510672, -3.216983, -0.123657, -0.087043, -0.061717, -0.876221, 0.444580, 0.056641, 0.064196, 0.019279, -0.016239, 1.000000, -0.000618, -0.000435, -0.000309, -177.070112, -76.021219, 102.720290, , , 0.000000, , , 
60926, , 7.096193, 2.357796, -1.011042, 2.157571, 1.352115, -2.709589, -0.585214, 0.020421, -0.044033, -0.875977, 0.442383, 0.069336, 0.070966, 0.023533, -0.010187, 0.999996, -0.002926, 0.000102, -0.000220, -177.484195, -76.037246, 102.822013, , , 0.000000, , , 
60927, , 7.272109, 1.296293, -1.639204, 1.279479, 0.503666, -2.372250, -0.963396, 0.192048, -0.008146, -0.876221, 0.442383, 0.062988, 0.072706, 0.012881, -0.016524, 0.999988, -0.004817, 0.000960, -0.000041, -178.030298, -76.143990, 102.815148, , , 0.000000, , , 
60928, , 7.312594, 1.288433, -1.588132, 1.250124, 0.529274, -2.341862, -0.862363, 0.258955, 0.010591, -0.873779, 0.436035, 0.063232, 0.073105, 0.012819, -0.016031, 0.999990, -0.004312, 0.001295, 0.000053, -178.469092, -76.283389, 102.765138, , , 0.000000, , , 
60929, , 7.206519, 0.637062, -1.993984, 0.715751, -0.067116, -2.342824, -0.860433, 0.258751, 0.039242, -0.878174, 0.436035, 0.063232, 0.072038, 0.006299, -0.020060, 0.999990, -0.004302, 0.001294, 0.000196, -178.847352, -76.427647, 102.646229, , , 0.000000, , , 
60930, , 7.140405, 0.258713, -2.569229, 0.475752, -0.741982, -2.271049, -0.756983, 0.265909, 0.049978, -0.875977, 0.440186, 0.062988, 0.071369, 0.002507, -0.025797, 0.999992, -0.003785, 0.001330, 0.000250, -179.179607, -76.582662, 102.560340, , , 0.000000, , , 
60931, , 6.867486, -0.343406, -3.469025, 0.094470, -1.817729, -2.329285, -0.622476, 0.280154, 0.038009, -0.873779, 0.440186, 0.062988, 0.068627, -0.003529, -0.034776, 0.999994, -0.003112, 0.001401, 0.000190, -179.428046, -76.739510, 102.448287, , , 0.000000, , , 
60932, , 6.983143, 0.112202, -3.230419, 0.467521, -1.483078, -2.276485, -0.543608, 0.168406, 0.007906, -0.882324, 0.438232, 0.071533, 0.069804, 0.001037, -0.032366, 0.999996, -0.002718, 0.000842, 0.000040, -179.705838, -76.840899, 102.441441, , , 0.000000, , , 
60933, , 7.433502, -0.138467, -3.170838, 0.168157, -1.395099, -1.853059, -0.884591, 0.079983, -0.004015, -0.875977, 0.440186, 0.071289, 0.074322, -0.001526, -0.031732, 0.999990, -0.004423, 0.000400, -0.000020, 179.786273, -76.883393, 102.441706, , , 0.000000, , , 
60934, , 8.192548, -0.565126, -3.241033, -0.300752, -1.386628, -1.099007, -0.863417, -0.071191, -0.019475, -0.875977, 0.440186, 0.071289, 0.081936, -0.005799, -0.032356, 0.999991, -0.004317, -0.000356, -0.000097, 179.233875, -76.835785, 102.509335, , , 0.000000, , , 
60935, , 9.081381, -0.331093, -3.320313, -0.128537, -1.207842, -0.214244, -0.632842, -0.161009, -0.027903, -0.875977, 0.436035, 0.077881, 0.090840, -0.003428, -0.033119, 0.999995, -0.003164, -0.000805, -0.000140, 178.818757, -76.739953, 102.562455, , , 0.000000, , , 
60936, , 9.841589, 0.350356, -3.420271, 0.492047, -0.979354, 0.554400, -0.654801, -0.317094, -0.044734, -0.880127, 0.436035, 0.086182, 0.098471, 0.003370, -0.034058, 0.999993, -0.003274, -0.001585, -0.000224, 178.364310, -76.558047, 102.670830, , , 0.000000, , , 
60937, , 11.226441, 0.565343, -3.862755, 0.678819, -1.009556, 2.010728, -0.539381, -0.482986, -0.077953, -0.877930, 0.436035, 0.090332, 0.112359, 0.005506, -0.038371, 0.999993, -0.002697, -0.002415, -0.000390, 177.916641, -76.276751, 102.812625, , , 0.000000, , , 
60938, , 12.595227, 0.660976, -4.172692, 0.716734, -0.915622, 3.421189, -0.313436, -0.518778, -0.112876, -0.875732, 0.431641, 0.098877, 0.126064, 0.006474, -0.041410, 0.999995, -0.001567, -0.002594, -0.000564, 177.516626, -75.971941, 103.055181, , , 0.000000, , , 
60939, , 13.162620, 0.823851, -4.324887, 0.834149, -0.832569, 4.016574, -0.162802, -0.528912, -0.138987, -0.875732, 0.429443, 0.100830, 0.131746, 0.008112, -0.042907, 0.999996, -0.000814, -0.002645, -0.000695, 177.172895, -75.662303, 103.312687, , , 0.000000, , , 
60940, , 13.053947, 0.374753, -4.965494, 0.473590, -1.484383, 4.071619, -0.118849, -0.513774, -0.124422, -0.873535, 0.431641, 0.104980, 0.130669, 0.003637, -0.049322, 0.999996, -0.000594, -0.002569, -0.000622, 176.871278, -75.358643, 103.575260, , , 0.000000, , , 
60941, , 12.137917, 0.071065, -5.410562, 0.281740, -2.126744, 3.302401, 0.033194, -0.444908, -0.055219, -0.877930, 0.431641, 0.111328, 0.121499, 0.000686, -0.053835, 0.999997, 0.000166, -0.002225, -0.000276, 176.832038, -75.099166, 103.634691, , , 0.000000, , , 
60942, , 11.519556, -0.040017, -6.015905, 0.308170, -2.827079, 2.868219, 0.076874, -0.318023, 0.015741, -0.882080, 0.427246, 0.111328, 0.115291, -0.000368, -0.059976, 0.999999, 0.000384, -0.001590, 0.000079, 176.952621, -74.912078, 103.582622, , , 0.000000, , , 
60943, , 11.004406, 0.164963, -5.768220, 0.502948, -2.637446, 2.319387, 0.254011, -0.396836, 0.053354, -0.871338, 0.429443, 0.115479, 0.110158, 0.001752, -0.057462, 0.999997, 0.001270, -0.001984, 0.000267, 177.260992, -74.683331, 103.413078, , , 0.000000, , , 
60944, , 11.721124, 0.661817, -4.597262, 0.744427, -1.170226, 2.718595, 0.303130, -0.807662, 0.055097, -0.873535, 0.433838, 0.121582, 0.117394, 0.006720, -0.045489, 0.999991, 0.001516, -0.004038, 0.000275, 177.599707, -74.214495, 103.266604, , , 0.000000, , , 
60945, , 13.105862, 0.726128, -3.282432, 0.477047, 0.571181, 3.696936, 0.309616, -0.969728, -0.005330, -0.873535, 0.427246, 0.130127, 0.131216, 0.007308, -0.032177, 0.999987, 0.001548, -0.004849, -0.000027, 177.850648, -73.655980, 103.189280, , , 0.000000, , , 
60946, , 13.640213, 0.986480, -2.398662, 0.513660, 1.723218, 3.954947, 0.360560, -0.778169, -0.096298, -0.871338, 0.431641, 0.134277, 0.136499, 0.009842, -0.023438, 0.999991, 0.001803, -0.003891, -0.000481, 177.911582, -73.197067, 103.364148, , , 0.000000, , , 
60947, , 13.661391, 0.897771, -1.379761, 0.209258, 2.745207, 3.669269, 0.127617, -0.348571, -0.154326, -0.871338, 0.431641, 0.134277, 0.136645, 0.008881, -0.013554, 0.999998, 0.000638, -0.001743, -0.000772, 177.726074, -72.990901, 103.633665, , , 0.000000, , , 
60948, , 13.519599, 0.027284, -0.623699, -0.802733, 3.262616, 3.297622, -0.103585, -0.014833, -0.162703, -0.873535, 0.431641, 0.134277, 0.135197, 0.000160, -0.006227, 1.000000, -0.000518, -0.000074, -0.000814, 177.360591, -72.972189, 103.979961, , , 0.000000, , , 
60949, , 13.142613, -0.945962, -0.041330, -1.857751, 3.496200, 2.755133, 0.022037, 0.151289, -0.164312, -0.875488, 0.427246, 0.132324, 0.131418, -0.009568, -0.000514, 0.999999, 0.000110, 0.000756, -0.000822, 177.058829, -73.050996, 104.307917, , , 0.000000, , , 
60950, , 12.660947, -1.134489, 0.990213, -2.218607, 4.251435, 2.001287, 0.273669, 0.374409, -0.184164, -0.873535, 0.431641, 0.130127, 0.126617, -0.011475, 0.009649, 0.999997, 0.001368, 0.001872, -0.000921, 176.827077, -73.261036, 104.737551, , , 0.000000, , , 
60951, , 11.461871, -0.613012, 1.465944, -1.727315, 4.412791, 0.743946, 0.380208, 0.526730, -0.218383, -0.873535, 0.427246, 0.121826, 0.114650, -0.006283, 0.014346, 0.999994, 0.001901, 0.002634, -0.001092, 176.575007, -73.552002, 105.227133, , , 0.000000, , , 
60952, , 10.139105, 0.994914, 0.729712, 0.067759, 3.642274, -0.270524, 0.147698, 0.353931, -0.247422, -0.879883, 0.425049, 0.121826, 0.101416, 0.009818, 0.007125, 0.999997, 0.000738, 0.001770, -0.001237, 176.158572, -73.749664, 105.773691, , , 0.000000, , , 
60953, , 10.218591, 1.544456, -1.299266, 0.975184, 1.846811, 0.391786, -0.585867, 0.007451, -0.182657, -0.879883, 0.425049, 0.124023, 0.102199, 0.015313, -0.013041, 0.999995, -0.002929, 0.000037, -0.000913, 175.471925, -73.743221, 106.138541, , , 0.000000, , , 
60954, , 11.179254, 0.242760, -0.305591, -0.580649, 2.766361, 1.010349, -0.172386, -0.016425, -0.103947, -0.877686, 0.423096, 0.126221, 0.111794, 0.002367, -0.003049, 0.999999, -0.000862, -0.000082, -0.000520, 175.176132, -73.732144, 106.352267, , , 0.000000, , , 
60955, , 11.663156, 2.745753, 2.896072, 1.221065, 6.404184, 0.649192, 0.160026, 0.326603, -0.019429, -0.879883, 0.423096, 0.117676, 0.116681, 0.027423, 0.028792, 0.999998, 0.000800, 0.001633, -0.000097, 175.183742, -73.914650, 106.439082, , , 0.000000, , , 
60956, , 11.257230, 2.572819, 1.950727, 1.275162, 5.330416, 0.536724, -0.361557, 0.400846, 0.066994, -0.877686, 0.427246, 0.111328, 0.112602, 0.025801, 0.019235, 0.999996, -0.001808, 0.002004, 0.000335, 175.048094, -74.156016, 106.373775, , , 0.000000, , , 
60957, , 11.357176, 2.174689, 0.286952, 1.210396, 3.666251, 1.091003, -0.272857, 0.282782, 0.084121, -0.881836, 0.423096, 0.111572, 0.113566, 0.021798, 0.002679, 0.999998, -0.001364, 0.001414, 0.000421, 175.020964, -74.318604, 106.238799, , , 0.000000, , , 
60958, , 11.863625, 1.399058, -0.750623, 0.619598, 2.628588, 1.848056, -0.429286, 0.192076, 0.083286, -0.877686, 0.420898, 0.113770, 0.118623, 0.014024, -0.007650, 0.999997, -0.002146, 0.000960, 0.000416, 174.918652, -74.455121, 106.105321, , , 0.000000, , , 
60959, , 11.963287, -0.083333, -1.918734, -0.619320, 1.232411, 2.225013, -0.414712, 0.268933, 0.087339, -0.877441, 0.416504, 0.115967, 0.119607, -0.000821, -0.019346, 0.999997, -0.002074, 0.001345, 0.000437, 174.820557, -74.610157, 105.959876, , , 0.000000, , , 
60960, , 10.919260, -1.348031, -2.942101, -1.595278, -0.280675, 1.460271, -0.280935, 0.340741, 0.093230, -0.871094, 0.418701, 0.117920, 0.109149, -0.013471, -0.029588, 0.999997, -0.001405, 0.001704, 0.000466, 174.755381, -74.826292, 105.862452, , , 0.000000, , , 
60961, , 9.950713, -1.149661, -2.152901, -1.458415, 0.232081, 0.325975, -0.189906, 0.313499, 0.112375, -0.877686, 0.425049, 0.111572, 0.099480, -0.011461, -0.021674, 0.999998, -0.000950, 0.001567, 0.000562, 174.833443, -75.008145, 105.668236, , , 0.000000, , , 
60962, , 9.413200, -1.083359, -1.566476, -1.444310, 0.642783, -0.339747, -0.271666, 0.253834, 0.144881, -0.881836, 0.423096, 0.113525, 0.094120, -0.010787, -0.015770, 0.999998, -0.001358, 0.001269, 0.000724, 174.933726, -75.172009, 105.406311, , , 0.000000, , , 
60963, , 9.116491, -0.635916, -1.160245, -1.040582, 1.019717, -0.716629, -0.577193, 0.267262, 0.173360, -0.877686, 0.425293, 0.107178, 0.091155, -0.006314, -0.011706, 0.999995, -0.002886, 0.001336, 0.000867, 174.937200, -75.330439, 105.060058, , , 0.000000, , , 
60964, , 8.500115, -0.531283, -1.455217, -0.836965, 0.585476, -1.233145, -0.703300, 0.268220, 0.201730, -0.882080, 0.423096, 0.107422, 0.084987, -0.005279, -0.014648, 0.999992, -0.003516, 0.001341, 0.001009, 174.907581, -75.510774, 104.673405, , , 0.000000, , , 
60965, , 8.075836, -0.422718, -1.751477, -0.645648, 0.203193, -1.566032, -0.628494, 0.212553, 0.237164, -0.877930, 0.429443, 0.115479, 0.080745, -0.004187, -0.017587, 0.999994, -0.003142, 0.001063, 0.001186, 175.042208, -75.641156, 104.161894, , , 0.000000, , , 
60966, , 7.994986, -0.035327, -1.509797, -0.282832, 0.460714, -1.694298, -0.517324, 0.230569, 0.247519, -0.884277, 0.429443, 0.111328, 0.079933, -0.000294, -0.015189, 0.999995, -0.002587, 0.001153, 0.001238, 175.238582, -75.802186, 103.650479, , , 0.000000, , , 
60967, , 7.602043, 0.159461, -1.454250, -0.060758, 0.434011, -2.083572, -0.483512, 0.253232, 0.251832, -0.875488, 0.425049, 0.111572, 0.076000, 0.001655, -0.014643, 0.999995, -0.002418, 0.001266, 0.001259, 175.496675, -75.955638, 103.098004, , , 0.000000, , , 
60968, , 7.153316, 0.386438, -1.374716, 0.191199, 0.418922, -2.532783, -0.472736, 0.222872, 0.258346, -0.873535, 0.429443, 0.111328, 0.071513, 0.003924, -0.013836, 0.999996, -0.002364, 0.001114, 0.001292, 175.744064, -76.112917, 102.557818, , , 0.000000, , , 
60969, , 6.762003, 0.190869, -1.400703, 0.034942, 0.259408, -2.909460, -0.522776, 0.194440, 0.246269, -0.877930, 0.431641, 0.117676, 0.067604, 0.001955, -0.014078, 0.999995, -0.002614, 0.000972, 0.001231, 175.993711, -76.231398, 101.991578, , , 0.000000, , , 
60970, , 6.404496, -0.345984, -1.395693, -0.469202, 0.092534, -3.266199, -0.504464, 0.191760, 0.245242, -0.869385, 0.435791, 0.109131, 0.064036, -0.003417, -0.014010, 0.999996, -0.002522, 0.000959, 0.001226, 176.220572, -76.364423, 101.452315, , , 0.000000, , , 
60971, , 5.988880, -0.879658, -1.773592, -0.920461, -0.446775, -3.588601, -0.336390, 0.156807, 0.234358, -0.867188, 0.435791, 0.113281, 0.059885, -0.008756, -0.017768, 0.999998, -0.001682, 0.000784, 0.001172, 176.568893, -76.459723, 100.894993, , , 0.000000, , , 
60972, , 5.850347, -1.062277, -2.158011, -1.037669, -0.880031, -3.635245, -0.183776, 0.123502, 0.212175, -0.867188, 0.435791, 0.113281, 0.058501, -0.010581, -0.021607, 0.999999, -0.000919, 0.000618, 0.001061, 176.965899, -76.555518, 100.386876, , , 0.000000, , , 
60973, , 5.790400, -1.439398, -2.157315, -1.398782, -0.946923, -3.697024, 0.020285, 0.137883, 0.172368, -0.871582, 0.440186, 0.108887, 0.057901, -0.014342, -0.021615, 0.999999, 0.000101, 0.000689, 0.000862, 177.385157, -76.636490, 99.967155, , , 0.000000, , , 
60974, , 5.616155, -2.312176, -2.461268, -2.204259, -1.405185, -3.803374, 0.401272, 0.139397, 0.121785, -0.867432, 0.440186, 0.104736, 0.056158, -0.023038, -0.024698, 0.999998, 0.002006, 0.000697, 0.000609, 177.897327, -76.735862, 99.681131, , , 0.000000, , , 
60975, , 6.113326, -1.606618, -1.991129, -1.561784, -0.761164, -3.417381, 0.938264, 0.106805, 0.067898, -0.869629, 0.440186, 0.102783, 0.061128, -0.015952, -0.020019, 0.999989, 0.004691, 0.000534, 0.000339, 178.602262, -76.795408, 99.508554, , , 0.000000, , , 
60976, , 6.317804, -1.153573, -1.270426, -1.198598, 0.024679, -3.376689, 0.800445, 0.147733, 0.046069, -0.875977, 0.440186, 0.100586, 0.063171, -0.011470, -0.012797, 0.999992, 0.004002, 0.000739, 0.000230, 179.171204, -76.897906, 99.402148, , , 0.000000, , , 
60977, , 6.823673, -1.562997, -1.526332, -1.568379, -0.188016, -2.824130, 0.834003, 0.151480, 0.019316, -0.869629, 0.442383, 0.085938, 0.068227, -0.015559, -0.015380, 0.999991, 0.004170, 0.000757, 0.000097, 179.702900, -76.981993, 99.346222, , , 0.000000, , , 
60978, , 7.288549, -1.751502, -1.989693, -1.677533, -0.589296, -2.263645, 1.175266, 0.213764, -0.003374, -0.867432, 0.442383, 0.083740, 0.072864, -0.017399, -0.020077, 0.999982, 0.005876, 0.001069, -0.000017, -179.647339, -77.123719, 99.373023, , , 0.000000, , , 
60979, , 7.493134, -0.613703, -1.822932, -0.561262, -0.220657, -2.100169, 1.515677, 0.284361, -0.032538, -0.869629, 0.446777, 0.079590, 0.074904, -0.006010, -0.018382, 0.999970, 0.007578, 0.001422, -0.000163, -178.841951, -77.284071, 99.437022, , , 0.000000, , , 
60980, , 7.454043, 0.074045, -2.011918, 0.180551, -0.304785, -2.099680, 1.420218, 0.233655, -0.030472, -0.867676, 0.446777, 0.071289, 0.074517, 0.000872, -0.020200, 0.999974, 0.007101, 0.001168, -0.000152, -178.078432, -77.431566, 99.493157, , , 0.000000, , , 
60981, , 7.514949, 0.208308, -2.609902, 0.457448, -0.845397, -1.912980, 1.244366, 0.184879, -0.010445, -0.872070, 0.448975, 0.062744, 0.075125, 0.002242, -0.026155, 0.999980, 0.006222, 0.000924, -0.000052, -177.363975, -77.534812, 99.491001, , , 0.000000, , , 
60982, , 7.836411, 0.165929, -3.220462, 0.569250, -1.371687, -1.469874, 1.290570, 0.115075, 0.004809, -0.869873, 0.446777, 0.060791, 0.078346, 0.001869, -0.032238, 0.999979, 0.006453, 0.000575, 0.000024, -176.579601, -77.609745, 99.447383, , , 0.000000, , , 
60983, , 8.488187, 0.209034, -3.256724, 0.642496, -1.253724, -0.828566, 1.562744, 0.081067, -0.011369, -0.867676, 0.450928, 0.043945, 0.084869, 0.002340, -0.032584, 0.999969, 0.007814, 0.000405, -0.000057, -175.690355, -77.653644, 99.453034, , , 0.000000, , , 
60984, , 9.255487, 0.266413, -2.744251, 0.597689, -0.584836, -0.191538, 1.622352, 0.049743, -0.018949, -0.872070, 0.453125, 0.039795, 0.092548, 0.002878, -0.027443, 0.999967, 0.008112, 0.000249, -0.000095, -174.783384, -77.691217, 99.480939, , , 0.000000, , , 
60985, , 10.093927, 0.446893, -2.397109, 0.690444, -0.024030, 0.548580, 1.311323, 0.016367, -0.027486, -0.872070, 0.455322, 0.039551, 0.100938, 0.004612, -0.023949, 0.999978, 0.006557, 0.000082, -0.000137, -174.090853, -77.699148, 99.540490, , , 0.000000, , , 
60986, , 10.742795, 0.066669, -3.415765, 0.594316, -0.934561, 1.405729, 0.863842, -0.068684, -0.034835, -0.865479, 0.448975, 0.029297, 0.107440, 0.000795, -0.034118, 0.999991, 0.004319, -0.000343, -0.000174, -173.677826, -77.666296, 99.626130, , , 0.000000, , , 
60987, , 11.290627, 0.168542, -4.769220, 1.066419, -2.041112, 2.226773, 0.861011, -0.125325, -0.037881, -0.869873, 0.446777, 0.029541, 0.112936, 0.001869, -0.047614, 0.999991, 0.004305, -0.000627, -0.000189, -173.311221, -77.594447, 99.755223, , , 0.000000, , , 
60988, , 11.298101, 0.690318, -4.647258, 1.565275, -1.741520, 2.197197, 0.929800, -0.282502, 0.027086, -0.867920, 0.457520, 0.031250, 0.113046, 0.007134, -0.046280, 0.999988, 0.004649, -0.001413, 0.000135, -172.795347, -77.439641, 99.779119, , , 0.000000, , , 
60989, , 11.495739, 1.391615, -3.810113, 2.006536, -0.651593, 2.193742, 0.398524, -0.538621, 0.087386, -0.874268, 0.451172, 0.037598, 0.115053, 0.014042, -0.037763, 0.999994, 0.001993, -0.002693, 0.000437, -172.513592, -77.124194, 99.723723, , , 0.000000, , , 
60990, , 11.385761, 0.768781, -4.148212, 1.506783, -1.103435, 2.185059, -0.212202, -0.555720, 0.081298, -0.872314, 0.455322, 0.037598, 0.113969, 0.007690, -0.041174, 0.999995, -0.001061, -0.002779, 0.000406, -172.607463, -76.798079, 99.690895, , , 0.000000, , , 
60991, , 10.613031, -0.007532, -4.989312, 1.011438, -2.227024, 1.656695, -0.388423, -0.522538, 0.014896, -0.865723, 0.455322, 0.048096, 0.106260, -0.000164, -0.049615, 0.999995, -0.001942, -0.002613, 0.000074, -172.945135, -76.496990, 99.808555, , , 0.000000, , , 
60992, , 10.177614, -0.858647, -5.388263, 0.289288, -2.888533, 1.364377, -0.388501, -0.544827, -0.057071, -0.867920, 0.455322, 0.052246, 0.101920, -0.008720, -0.053588, 0.999994, -0.001943, -0.002724, -0.000285, -173.443504, -76.187889, 100.093435, , , 0.000000, , , 
60993, , 10.265121, -1.659873, -5.459454, -0.502466, -3.095825, 1.505276, -0.023072, -0.736862, -0.129970, -0.867676, 0.453125, 0.060547, 0.102841, -0.016672, -0.054214, 0.999993, -0.000115, -0.003684, -0.000650, -173.931452, -75.773454, 100.582062, , , 0.000000, , , 
60994, , 11.379226, -1.170426, -4.755263, -0.315541, -1.945225, 2.417799, 0.353953, -0.898797, -0.174508, -0.874268, 0.453125, 0.060547, 0.113994, -0.011720, -0.047061, 0.999988, 0.001770, -0.004494, -0.000873, -174.303285, -75.265109, 101.179163, , , 0.000000, , , 
60995, , 12.955812, -0.365191, -4.253415, 0.200222, -0.748901, 3.806263, 0.337095, -0.890494, -0.139325, -0.867676, 0.450928, 0.075195, 0.129743, -0.003671, -0.041963, 0.999988, 0.001685, -0.004452, -0.000697, -174.584221, -74.762031, 101.669242, , , 0.000000, , , 
60996, , 13.991307, -0.328036, -3.444958, -0.080086, 0.382416, 4.594896, 0.651463, -0.730748, -0.087216, -0.867676, 0.450928, 0.077393, 0.140036, -0.003230, -0.033949, 0.999988, 0.003257, -0.003654, -0.000436, -174.525778, -74.345151, 102.001195, , , 0.000000, , , 
60997, , 14.974616, 0.836806, -1.125034, 0.269724, 3.226163, 4.874822, 1.019858, -0.765797, -0.070934, -0.865479, 0.450928, 0.081543, 0.149791, 0.008370, -0.010634, 0.999980, 0.005099, -0.003829, -0.000355, -174.228070, -73.909476, 102.298490, , , 0.000000, , , 
60998, , 15.845801, 1.837739, 1.098862, 0.453451, 5.922874, 5.032725, 0.593372, -0.865078, -0.034429, -0.863525, 0.453125, 0.079346, 0.158411, 0.018316, 0.011728, 0.999986, 0.002967, -0.004325, -0.000172, -174.117735, -73.408490, 102.536183, , , 0.000000, , , 
60999, , 15.778570, 1.021453, 1.972154, -0.629689, 6.557613, 4.695797, 0.119247, -0.711036, 0.022129, -0.865479, 0.453125, 0.089844, 0.157713, 0.010220, 0.020288, 0.999993, 0.000596, -0.003555, 0.000111, -174.139340, -72.998884, 102.629397, , , 0.000000, , , 
61000, , 15.469323, 0.585613, 3.002059, -1.357667, 7.337051, 4.079019, 0.106280, -0.291081, 0.079690, -0.861328, 0.453125, 0.087646, 0.154647, 0.005902, 0.030249, 0.999999, 0.000531, -0.001455, 0.000398, -173.965228, -72.827470, 102.511071, , , 0.000000, , , 
61001, , 13.959023, 0.888646, 3.705256, -1.172154, 7.636175, 2.421998, -0.282978, 0.366210, 0.110911, -0.869873, 0.453125, 0.085693, 0.139653, 0.009016, 0.036784, 0.999997, -0.001415, 0.001831, 0.000555, -173.842781, -73.026280, 102.212635, , , 0.000000, , , 
61002, , 11.532522, 0.214512, 1.119596, -0.831374, 4.345320, 0.898298, -0.296157, 0.544192, 0.138001, -0.872070, 0.455322, 0.079346, 0.115354, 0.002241, 0.010879, 0.999995, -0.001481, 0.002721, 0.000690, -173.629143, -73.336142, 101.807892, , , 0.000000, , , 
61003, , 9.782849, 0.230705, -1.307686, 0.053586, 1.616008, -0.073439, 0.468389, 0.313660, 0.083212, -0.861572, 0.461670, 0.081299, 0.097807, 0.002379, -0.013225, 0.999996, 0.002342, 0.001568, 0.000416, -173.125607, -73.506064, 101.561781, , , 0.000000, , , 
61004, , 9.667805, 1.395579, -3.441955, 1.849237, -0.026796, 0.377531, 0.389914, 0.513093, -0.026906, -0.865723, 0.457520, 0.072998, 0.096591, 0.014010, -0.034640, 0.999995, 0.001950, 0.002565, -0.000135, -172.808387, -73.809052, 101.457303, , , 0.000000, , , 
61005, , 8.878620, -0.263216, -0.692009, -0.521704, 1.692795, -1.081126, 0.453352, 0.485745, -0.111384, -0.861328, 0.457520, 0.062500, 0.088768, -0.002666, -0.007142, 0.999994, 0.002267, 0.002429, -0.000557, -172.639438, -74.090087, 101.551038, , , 0.000000, , , 
61006, , 9.835304, -0.302021, 2.142835, -1.510775, 4.480863, -0.921370, 0.217376, 0.142809, -0.181907, -0.867920, 0.457520, 0.064697, 0.098365, -0.003133, 0.021355, 0.999999, 0.001087, 0.000714, -0.000910, -172.815586, -74.194464, 101.858087, , , 0.000000, , , 
61007, , 10.329649, -1.102394, 1.064341, -1.966400, 3.354493, -0.120922, -0.028149, 0.181076, -0.186891, -0.867920, 0.459717, 0.058350, 0.103296, -0.011119, 0.010551, 0.999999, -0.000141, 0.000905, -0.000934, -173.156596, -74.307407, 102.194884, , , 0.000000, , , 
61008, , 10.721340, -1.273004, -1.579567, -1.315604, 0.976504, 0.975190, 0.193607, 0.123872, -0.155105, -0.865723, 0.453125, 0.060547, 0.107194, -0.012798, -0.015874, 0.999999, 0.000968, 0.000619, -0.000776, -173.291003, -74.400952, 102.441467, , , 0.000000, , , 
61009, , 10.622484, -0.427779, -2.587511, -0.185623, 0.290565, 1.123329, 0.686753, 0.152338, -0.115024, -0.872070, 0.451172, 0.054443, 0.106203, -0.004250, -0.025971, 0.999994, 0.003434, 0.000762, -0.000575, -173.088058, -74.492340, 102.638480, , , 0.000000, , , 
61010, , 9.776161, 0.756557, -1.731730, 0.713158, 1.220864, 0.043553, 0.646684, 0.192924, -0.072897, -0.870117, 0.455322, 0.052246, 0.097748, 0.007586, -0.017387, 0.999994, 0.003233, 0.000965, -0.000364, -172.800694, -74.620140, 102.714084, , , 0.000000, , , 
61011, , 8.890499, 0.377861, -2.002804, 0.506689, 0.610805, -0.726150, 0.491925, 0.102065, -0.057263, -0.863525, 0.453125, 0.050049, 0.088896, 0.003802, -0.020064, 0.999997, 0.002460, 0.000510, -0.000286, -172.602838, -74.679206, 102.800409, , , 0.000000, , , 
61012, , 8.199777, 0.616781, -2.049460, 0.795633, 0.465586, -1.388482, 0.553856, 0.124312, -0.090025, -0.869873, 0.453125, 0.043945, 0.081988, 0.006188, -0.020528, 0.999996, 0.002769, 0.000622, -0.000450, -172.404704, -74.765425, 102.910324, , , 0.000000, , , 
61013, , 7.549103, 0.821203, -1.646634, 0.890458, 0.728947, -2.128258, 0.488856, 0.103085, -0.135518, -0.867676, 0.451172, 0.039795, 0.075488, 0.008201, -0.016485, 0.999997, 0.002444, 0.000515, -0.000678, -172.371378, -74.831119, 103.165239, , , 0.000000, , , 
61014, , 7.099868, 1.046996, -1.302915, 1.007592, 0.996199, -2.657671, 0.285662, 0.108999, -0.160542, -0.876465, 0.451172, 0.039795, 0.071000, 0.010432, -0.013053, 0.999999, 0.001428, 0.000545, -0.000803, -172.487136, -74.918334, 103.443442, , , 0.000000, , , 
61015, , 6.668087, 0.608697, -1.491303, 0.683968, 0.554132, -3.009527, 0.128396, 0.124887, -0.176905, -0.869873, 0.453125, 0.039795, 0.066677, 0.006038, -0.014951, 0.999999, 0.000642, 0.000624, -0.000885, -172.745454, -74.999204, 103.786288, , , 0.000000, , , 
61016, , 6.480911, 0.411332, -1.263451, 0.426431, 0.629967, -3.240854, 0.231789, 0.158040, -0.186279, -0.869873, 0.446777, 0.035645, 0.064803, 0.004068, -0.012681, 0.999999, 0.001159, 0.000790, -0.000931, -172.942798, -75.112180, 104.111984, , , 0.000000, , , 
61017, , 6.325216, 0.389930, -1.085822, 0.348374, 0.730961, -3.434308, 0.200712, 0.186212, -0.193085, -0.878418, 0.446777, 0.029541, 0.063246, 0.003849, -0.010913, 0.999999, 0.001004, 0.000931, -0.000965, -173.185600, -75.228342, 104.481279, , , 0.000000, , , 
61018, , 6.275467, 0.345651, -1.332170, 0.393513, 0.465094, -3.417028, 0.178249, 0.203738, -0.198454, -0.876221, 0.444580, 0.033691, 0.062744, 0.003406, -0.013383, 0.999999, 0.000891, 0.001019, -0.000992, -173.445481, -75.371880, 104.842290, , , 0.000000, , , 
61019, , 6.270098, 0.556925, -1.343330, 0.590001, 0.515810, -3.424053, 0.120558, 0.192982, -0.181021, -0.874023, 0.444580, 0.031494, 0.062693, 0.005521, -0.013490, 0.999999, 0.000603, 0.000965, -0.000905, -173.716692, -75.490280, 105.193035, , , 0.000000, , , 
61020, , 6.552001, 1.085899, -1.058645, 0.957817, 1.016691, -3.234122, -0.063745, 0.166579, -0.157089, -0.880615, 0.442627, 0.023193, 0.065520, 0.010804, -0.010644, 0.999999, -0.000319, 0.000833, -0.000785, -174.047999, -75.602011, 105.477523, , , 0.000000, , , 
61021, , 7.066470, 1.225499, -0.997501, 1.027231, 1.229051, -2.751097, -0.282679, 0.194493, -0.109466, -0.880371, 0.438232, 0.029785, 0.070662, 0.012202, -0.010061, 0.999998, -0.001413, 0.000972, -0.000547, -174.401075, -75.716131, 105.673905, , , 0.000000, , , 
61022, , 7.450923, 1.507925, -1.103334, 1.301422, 1.304867, -2.355407, -0.279567, 0.192197, -0.054248, -0.880371, 0.438232, 0.027588, 0.074503, 0.015044, -0.011126, 0.999999, -0.001398, 0.000961, -0.000271, -174.645208, -75.842509, 105.744222, , , 0.000000, , , 
61023, , 7.824226, 1.721843, -1.384612, 1.576152, 1.193789, -1.926562, -0.427383, 0.193990, -0.017663, -0.869873, 0.444580, 0.027344, 0.078230, 0.017182, -0.013959, 0.999997, -0.002137, 0.000970, -0.000088, -174.880372, -75.951091, 105.733317, , , 0.000000, , , 
61024, , 8.211684, 1.875944, -1.632314, 1.783744, 1.087448, -1.490967, -0.485166, 0.196680, 0.000029, -0.874023, 0.440430, 0.027588, 0.082101, 0.018720, -0.016449, 0.999997, -0.002426, 0.000983, 0.000000, -175.100178, -76.073856, 105.653353, , , 0.000000, , , 
61025, , 8.458665, 1.349872, -2.205624, 1.472631, 0.412305, -1.100786, -0.513721, 0.257629, 0.008873, -0.880371, 0.433838, 0.027832, 0.084558, 0.013446, -0.022200, 0.999996, -0.002569, 0.001288, 0.000044, -175.314092, -76.217516, 105.569596, , , 0.000000, , , 
61026, , 8.359719, 1.269008, -2.334573, 1.445665, 0.209784, -1.163325, -0.698429, 0.250762, 0.031196, -0.880371, 0.436035, 0.031738, 0.083566, 0.012621, -0.023495, 0.999993, -0.003492, 0.001254, 0.000156, -175.608534, -76.371592, 105.441449, , , 0.000000, , , 
61027, , 8.040459, 0.143211, -3.142566, 0.663159, -1.007568, -1.263408, -0.970767, 0.145833, 0.056540, -0.873779, 0.438232, 0.035889, 0.080381, 0.001302, -0.031491, 0.999988, -0.004854, 0.000729, 0.000283, -175.995537, -76.449577, 105.266425, , , 0.000000, , , 
61028, , 7.858550, -0.488236, -3.593468, 0.201196, -1.686367, -1.326002, -0.846530, 0.069770, 0.077484, -0.869629, 0.440186, 0.035889, 0.078575, -0.005004, -0.035941, 0.999991, -0.004233, 0.000349, 0.000387, -176.308469, -76.493201, 105.066655, , , 0.000000, , , 
61029, , 7.760916, 0.006616, -3.286552, 0.558573, -1.277559, -1.500703, -0.938105, 0.052667, 0.111885, -0.874023, 0.440430, 0.046387, 0.077601, -0.000045, -0.032886, 0.999989, -0.004691, 0.000263, 0.000559, -176.561095, -76.516372, 104.772714, , , 0.000000, , , 
61030, , 7.780496, -0.565071, -3.675400, 0.111339, -1.819810, -1.384174, -0.899407, 0.063868, 0.120482, -0.874023, 0.442383, 0.041992, 0.077797, -0.005769, -0.036753, 0.999990, -0.004497, 0.000319, 0.000602, -176.775990, -76.552270, 104.439501, , , 0.000000, , , 
61031, , 7.650773, 0.027421, -3.213344, 0.531669, -1.249671, -1.626339, -0.563226, 0.070536, 0.106000, -0.874023, 0.444580, 0.044189, 0.076496, 0.000224, -0.032161, 0.999996, -0.002816, 0.000353, 0.000530, -176.824633, -76.586264, 104.156710, , , 0.000000, , , 
61032, , 7.719851, 0.304713, -3.369546, 0.832126, -1.307981, -1.527790, -0.466217, 0.090529, 0.105426, -0.882568, 0.440430, 0.044189, 0.077182, 0.003009, -0.033737, 0.999997, -0.002331, 0.000453, 0.000527, -176.813229, -76.643063, 103.851999, , , 0.000000, , , 
61033, , 7.427597, 1.169204, -3.284390, 1.648171, -1.051969, -1.843977, -0.314277, 0.062738, 0.089768, -0.878418, 0.444580, 0.050293, 0.074260, 0.011674, -0.032886, 0.999999, -0.001571, 0.000314, 0.000449, -176.757375, -76.673103, 103.608487, , , 0.000000, , , 
61034, , 7.647757, 1.577249, -3.604727, 2.113957, -1.191056, -1.561473, -0.363717, -0.055447, 0.100967, -0.876221, 0.444580, 0.046143, 0.076480, 0.015746, -0.036055, 0.999998, -0.001819, -0.000277, 0.000505, -176.756449, -76.645107, 103.377997, , , 0.000000, , , 
61035, , 8.246269, 2.167483, -3.358993, 2.570921, -0.656479, -1.041077, -0.597633, -0.278072, 0.133487, -0.878174, 0.442383, 0.052490, 0.082495, 0.021630, -0.033540, 0.999994, -0.002988, -0.001390, 0.000667, -176.805945, -76.478773, 103.075758, , , 0.000000, , , 
61036, , 9.583155, 1.885901, -3.167567, 2.163446, -0.238753, 0.221724, -0.755420, -0.403591, 0.165163, -0.874023, 0.444580, 0.062988, 0.095880, 0.018819, -0.031553, 0.999990, -0.003777, -0.002018, 0.000826, -176.922447, -76.252569, 102.738007, , , 0.000000, , , 
61037, , 10.914346, 1.629803, -3.118184, 1.817848, 0.076130, 1.509494, -0.834659, -0.464849, 0.164631, -0.874023, 0.444580, 0.071289, 0.109202, 0.016258, -0.030996, 0.999988, -0.004173, -0.002324, 0.000823, -177.065677, -75.978710, 102.391844, , , 0.000000, , , 
61038, , 12.191030, 0.974966, -3.447974, 1.182338, -0.061069, 2.838731, -0.649183, -0.482433, 0.103261, -0.869629, 0.446777, 0.073242, 0.121988, 0.009701, -0.034217, 0.999992, -0.003246, -0.002412, 0.000516, -177.288934, -75.703311, 102.221692, , , 0.000000, , , 
61039, , 12.786572, 0.162923, -4.274587, 0.548583, -0.847650, 3.632584, -0.354125, -0.425282, 0.009117, -0.869629, 0.446777, 0.083740, 0.127956, 0.001560, -0.042477, 0.999996, -0.001771, -0.002126, 0.000046, -177.504560, -75.456728, 102.233713, , , 0.000000, , , 
61040, , 12.127392, -0.462996, -5.286871, 0.206127, -2.071099, 3.260450, 0.077663, -0.325486, -0.073224, -0.876221, 0.444580, 0.085938, 0.121358, -0.004654, -0.052673, 0.999999, 0.000388, -0.001627, -0.000366, -177.663760, -75.277679, 102.428078, , , 0.000000, , , 
61041, , 10.837448, -0.577832, -6.090860, 0.356960, -3.137264, 2.225287, 0.278565, -0.245569, -0.101110, -0.878418, 0.450928, 0.085693, 0.108446, -0.005748, -0.060783, 0.999998, 0.001393, -0.001228, -0.000506, -177.734910, -75.136504, 102.665603, , , 0.000000, , , 
61042, , 10.000397, -0.412396, -6.493196, 0.668190, -3.647866, 1.526892, 0.466129, -0.310434, -0.092949, -0.876221, 0.448975, 0.089844, 0.100103, -0.004019, -0.064786, 0.999996, 0.002331, -0.001552, -0.000465, -177.717559, -74.963736, 102.911062, , , 0.000000, , , 
61043, , 10.684541, 0.288915, -5.657210, 1.101315, -2.462042, 1.975952, 0.488323, -0.495311, -0.061839, -0.876221, 0.446777, 0.087891, 0.106986, 0.002994, -0.056300, 0.999994, 0.002442, -0.002477, -0.000309, -177.601459, -74.678708, 103.079503, , , 0.000000, , , 
61044, , 12.105052, 0.806989, -4.010783, 1.085269, -0.370251, 2.913457, 0.226824, -0.427197, -0.042568, -0.878174, 0.444580, 0.092041, 0.121138, 0.008089, -0.039840, 0.999997, 0.001134, -0.002136, -0.000213, -177.613396, -74.434645, 103.214318, , , 0.000000, , , 
61045, , 13.388859, 0.408115, -2.401923, 0.187278, 1.408535, 3.721638, -0.013683, -0.461959, -0.030347, -0.876221, 0.446777, 0.096191, 0.133944, 0.004059, -0.023710, 0.999997, -0.000068, -0.002310, -0.000152, -177.712285, -74.167962, 103.307705, , , 0.000000, , , 
61046, , 13.484744, 0.144721, -1.723495, -0.277637, 2.054030, 3.623574, 0.067445, -0.540863, -0.114404, -0.880371, 0.446777, 0.102539, 0.134894, 0.001376, -0.016870, 0.999996, 0.000337, -0.002704, -0.000572, -177.971472, -73.861881, 103.607239, , , 0.000000, , , 
61047, , 13.393936, 0.441015, -0.916132, -0.234235, 2.910652, 3.298539, 0.283149, -0.387996, -0.244741, -0.878174, 0.442383, 0.102539, 0.133962, 0.004259, -0.008895, 0.999996, 0.001416, -0.001940, -0.001224, -178.306059, -73.641336, 104.123514, , , 0.000000, , , 
61048, , 13.667014, 0.580441, 0.222403, -0.463020, 4.094338, 3.233212, 0.111016, -0.087135, -0.312266, -0.875977, 0.442383, 0.100586, 0.136678, 0.005590, 0.002287, 0.999999, 0.000555, -0.000436, -0.001561, -178.884712, -73.597559, 104.780998, , , 0.000000, , , 
61049, , 13.668789, 0.308600, 1.128072, -0.999252, 4.843747, 2.983526, -0.313636, 0.132863, -0.277350, -0.882568, 0.442383, 0.098389, 0.136699, 0.002914, 0.011185, 0.999998, -0.001568, 0.000664, -0.001387, -179.593159, -73.672931, 105.330832, , , 0.000000, , , 
61050, , 13.201614, -0.629100, 1.280879, -1.929258, 4.570348, 2.504324, -0.497071, 0.277370, -0.261738, -0.884277, 0.431641, 0.098877, 0.132025, -0.006432, 0.012642, 0.999995, -0.002485, 0.001387, -0.001309, 179.599610, -73.841107, 105.861357, , , 0.000000, , , 
61051, , 12.421740, -0.604427, 1.030824, -1.801534, 4.091810, 1.838014, -0.061079, 0.391222, -0.282410, -0.880127, 0.436035, 0.096680, 0.124229, -0.006217, 0.010067, 0.999997, -0.000305, 0.001956, -0.001412, 179.002107, -74.060511, 106.445430, , , 0.000000, , , 
61052, , 11.712969, 0.690265, 1.480864, -0.633962, 4.620191, 1.055377, -0.064920, 0.285658, -0.262128, -0.884277, 0.431641, 0.092529, 0.117160, 0.006754, 0.014639, 0.999998, -0.000325, 0.001428, -0.001311, 178.400286, -74.232647, 107.018076, , , 0.000000, , , 
61053, , 12.025355, 1.198845, 1.213082, -0.113457, 4.560695, 1.443649, -0.757118, 0.076943, -0.170513, -0.879883, 0.427246, 0.098877, 0.120268, 0.011932, 0.012039, 0.999992, -0.003786, 0.000385, -0.000853, 177.624678, -74.270647, 107.371959, , , 0.000000, , , 
61054, , 12.457506, 0.740704, -1.563267, 0.084277, 1.942801, 2.613101, -1.068552, 0.134934, -0.075942, -0.884277, 0.425293, 0.098877, 0.124567, 0.007276, -0.015756, 0.999985, -0.005343, 0.000675, -0.000380, 176.826082, -74.358970, 107.546326, , , 0.000000, , , 
61055, , 12.678907, 0.134684, -1.812062, -0.470459, 1.560870, 2.891571, -0.905000, 0.611665, -0.026384, -0.882080, 0.427246, 0.101074, 0.126733, 0.001247, -0.018514, 0.999985, -0.004525, 0.003058, -0.000132, 176.186161, -74.705288, 107.671003, , , 0.000000, , , 
61056, , 12.397489, 0.577555, 2.996041, -1.106148, 6.042464, 1.379830, -0.366430, 0.337844, 0.006278, -0.886230, 0.418701, 0.096924, 0.124025, 0.005834, 0.029740, 0.999997, -0.001832, 0.001689, 0.000031, 175.921888, -74.912190, 107.707032, , , 0.000000, , , 
61057, , 12.580152, 0.989550, 1.628556, -0.393578, 4.875114, 1.933373, -0.490424, 0.144503, 0.029135, -0.886475, 0.425293, 0.096924, 0.125812, 0.009954, 0.016170, 0.999997, -0.002452, 0.000723, 0.000146, 175.691081, -74.993475, 107.653769, , , 0.000000, , , 
61058, , 11.944721, -0.028927, -1.901236, -0.547173, 1.136541, 2.216474, -0.550534, 0.177425, 0.059547, -0.879639, 0.418701, 0.103271, 0.119430, -0.000306, -0.019117, 0.999996, -0.002753, 0.000887, 0.000298, 175.431655, -75.115858, 107.576997, , , 0.000000, , , 
61059, , 11.085635, -0.556793, -2.406194, -0.881879, 0.304420, 1.506351, -0.473931, 0.304145, 0.087683, -0.888428, 0.423096, 0.096924, 0.110822, -0.005577, -0.024217, 0.999996, -0.002370, 0.001521, 0.000438, 175.307397, -75.291152, 107.423341, , , 0.000000, , , 
61060, , 10.154712, -0.813968, -2.158128, -1.108667, 0.220051, 0.539152, -0.543384, 0.382562, 0.108759, -0.884033, 0.418701, 0.094971, 0.101510, -0.008143, -0.021753, 0.999994, -0.002717, 0.001913, 0.000544, 175.120914, -75.530162, 107.273276, , , 0.000000, , , 
61061, , 9.395797, -0.856650, -2.045982, -1.108625, 0.102907, -0.223049, -0.619792, 0.408871, 0.154995, -0.888672, 0.429443, 0.096680, 0.093923, -0.008557, -0.020625, 0.999993, -0.003099, 0.002044, 0.000775, 175.044470, -75.768755, 106.984281, , , 0.000000, , , 
61062, , 8.936544, -0.545796, -1.305750, -0.908376, 0.728389, -0.840012, -0.844831, 0.416198, 0.202946, -0.882080, 0.423096, 0.094727, 0.089344, -0.005423, -0.013220, 0.999988, -0.004224, 0.002081, 0.001015, 174.904107, -76.035228, 106.611691, , , 0.000000, , , 
61063, , 8.369982, -0.695364, -0.989415, -1.061392, 0.843213, -1.465145, -0.959256, 0.358445, 0.246320, -0.884277, 0.427490, 0.098877, 0.083690, -0.006898, -0.010011, 0.999986, -0.004796, 0.001792, 0.001232, 174.861814, -76.249991, 106.087795, , , 0.000000, , , 
61064, , 7.879558, -0.848269, -1.274311, -1.114105, 0.410661, -1.874113, -0.827359, 0.285448, 0.242327, -0.884033, 0.423096, 0.101074, 0.078788, -0.008440, -0.012821, 0.999990, -0.004137, 0.001427, 0.001212, 174.865207, -76.442786, 105.576433, , , 0.000000, , , 
61065, , 7.293528, -0.808246, -1.752670, -0.945008, -0.184789, -2.329810, -0.671375, 0.265211, 0.232481, -0.879883, 0.427246, 0.096680, 0.072921, -0.008057, -0.017596, 0.999993, -0.003357, 0.001326, 0.001162, 174.990169, -76.603562, 105.050977, , , 0.000000, , , 
61066, , 6.749003, -0.898242, -1.947283, -0.960801, -0.523507, -2.816219, -0.373025, 0.239573, 0.206024, -0.884277, 0.427490, 0.101074, 0.067476, -0.008949, -0.019537, 0.999997, -0.001865, 0.001198, 0.001030, 175.179123, -76.767655, 104.618982, , , 0.000000, , , 
61067, , 6.449637, -0.363830, -1.295191, -0.513081, 0.115924, -3.245269, -0.157561, 0.245183, 0.181804, -0.884277, 0.431641, 0.092529, 0.064484, -0.003590, -0.013028, 0.999999, -0.000788, 0.001226, 0.000909, 175.496249, -76.913774, 104.199172, , , 0.000000, , , 
61068, , 6.054970, -0.288627, -1.449413, -0.381923, -0.123222, -3.592906, -0.223598, 0.299213, 0.156520, -0.875732, 0.427246, 0.094727, 0.060530, -0.002855, -0.014581, 0.999998, -0.001118, 0.001496, 0.000783, 175.655956, -77.110459, 103.888827, , , 0.000000, , , 
61069, , 5.737362, -0.188625, -1.710246, -0.214535, -0.440466, -3.842948, 0.017540, 0.241967, 0.140280, -0.882080, 0.427490, 0.088379, 0.057354, -0.001845, -0.017172, 0.999999, 0.000088, 0.001210, 0.000701, 175.986220, -77.252222, 103.558982, , , 0.000000, , , 
61070, , 5.599198, -0.454998, -1.691707, -0.463827, -0.511209, -3.986589, -0.035958, 0.225526, 0.136526, -0.880127, 0.431641, 0.088379, 0.055976, -0.004515, -0.016979, 0.999999, -0.000180, 0.001128, 0.000683, 176.220623, -77.406534, 103.283326, , , 0.000000, , , 
61071, , 5.646025, -0.542612, -1.452654, -0.580332, -0.297978, -3.994042, 0.110507, 0.256689, 0.128034, -0.875732, 0.433838, 0.086182, 0.056445, -0.005382, -0.014602, 0.999999, 0.000553, 0.001283, 0.000640, 176.584457, -77.555558, 102.974022, , , 0.000000, , , 
61072, , 5.726189, -1.186402, -1.290795, -1.234547, -0.248170, -3.958012, 0.054107, 0.241186, 0.123473, -0.880127, 0.431641, 0.077881, 0.057254, -0.011825, -0.012980, 0.999999, 0.000271, 0.001206, 0.000617, 176.868215, -77.716971, 102.699970, , , 0.000000, , , 
61073, , 6.178671, -1.884994, -1.375692, -1.918884, -0.369000, -3.503695, 0.279240, 0.264809, 0.095240, -0.871582, 0.431641, 0.073730, 0.061777, -0.018801, -0.013865, 0.999998, 0.001396, 0.001324, 0.000476, 177.256633, -77.868928, 102.464775, , , 0.000000, , , 
61074, , 6.406138, -2.049021, -1.189006, -2.108197, -0.194583, -3.318967, 0.516282, 0.236322, 0.055623, -0.880127, 0.436035, 0.075684, 0.064053, -0.020441, -0.012019, 0.999996, 0.002581, 0.001182, 0.000278, 177.635049, -78.031721, 102.370830, , , 0.000000, , , 
61075, , 6.921878, -2.265472, -1.314468, -2.309147, -0.274786, -2.786677, 0.661539, 0.234070, -0.010245, -0.878174, 0.436035, 0.067383, 0.069202, -0.022614, -0.013301, 0.999994, 0.003308, 0.001170, -0.000051, 177.974380, -78.163167, 102.409917, , , 0.000000, , , 
61076, , 7.220951, -2.431478, -1.765336, -2.390437, -0.716794, -2.400368, 0.952286, 0.284087, -0.076410, -0.880127, 0.436035, 0.061035, 0.072175, -0.024258, -0.017871, 0.999988, 0.004761, 0.001420, -0.000382, 178.250851, -78.345288, 102.674088, , , 0.000000, , , 
61077, , 7.405806, -1.685163, -1.787016, -1.642922, -0.600299, -2.208778, 1.143032, 0.328363, -0.143306, -0.880371, 0.438232, 0.052734, 0.074016, -0.016802, -0.018088, 0.999982, 0.005715, 0.001642, -0.000717, 178.491114, -78.528684, 103.095821, , , 0.000000, , , 
61078, , 7.584350, -1.748577, -2.366311, -1.574535, -1.182636, -1.919573, 1.392907, 0.374201, -0.162883, -0.882568, 0.438232, 0.046387, 0.075785, -0.017381, -0.023926, 0.999974, 0.006964, 0.001871, -0.000814, 178.777616, -78.762700, 103.608584, , , 0.000000, , , 
61079, , 7.369550, -1.386549, -3.101808, -1.015192, -1.897157, -1.988125, 1.680078, 0.423130, -0.170824, -0.884766, 0.438232, 0.035889, 0.073618, -0.013666, -0.031289, 0.999962, 0.008400, 0.002116, -0.000854, 179.233833, -79.001084, 104.123159, , , 0.000000, , , 
61080, , 7.477911, -0.819793, -3.268404, -0.378652, -1.944008, -1.853364, 1.698629, 0.315441, -0.129012, -0.877930, 0.431641, 0.023682, 0.074722, -0.007967, -0.032870, 0.999962, 0.008493, 0.001577, -0.000645, 179.801407, -79.198221, 104.526540, , , 0.000000, , , 
61081, , 7.755505, -0.839623, -2.877782, -0.454397, -1.547663, -1.655942, 1.707277, 0.164601, -0.079225, -0.882324, 0.433838, 0.017334, 0.077528, -0.008181, -0.028912, 0.999963, 0.008536, 0.000823, -0.000396, -179.444674, -79.290329, 104.753308, , , 0.000000, , , 
61082, , 8.375606, -0.288553, -2.564763, 0.010058, -1.000816, -1.105783, 1.734492, -0.019895, -0.060980, -0.884521, 0.434082, 0.010986, 0.083758, -0.002689, -0.025663, 0.999962, 0.008672, -0.000099, -0.000305, -178.660974, -79.295875, 104.956947, , , 0.000000, , , 
61083, , 9.538586, 0.373603, -2.602166, 0.636939, -0.619828, 0.041519, 1.750180, -0.180369, -0.028057, -0.880371, 0.438232, 0.010986, 0.095410, 0.003950, -0.025902, 0.999961, 0.008751, -0.000902, -0.000140, -177.747164, -79.190701, 105.045974, , , 0.000000, , , 
61084, , 10.177026, 0.542903, -2.987823, 0.914522, -0.779657, 0.739527, 1.683916, -0.177515, -0.050452, -0.882324, 0.429688, 0.002686, 0.101798, 0.005654, -0.029741, 0.999964, 0.008419, -0.000888, -0.000252, -176.971715, -79.099405, 105.225154, , , 0.000000, , , 
61085, , 10.536794, 0.497217, -3.486362, 1.039499, -1.149298, 1.188416, 1.410077, -0.249177, -0.058776, -0.886719, 0.429688, -0.001465, 0.105413, 0.005186, -0.034696, 0.999974, 0.007050, -0.001246, -0.000294, -176.368016, -78.956386, 105.431611, , , 0.000000, , , 
61086, , 10.719368, -0.117836, -4.779487, 0.898125, -2.466375, 1.627251, 1.319629, -0.354779, -0.057784, -0.880371, 0.434082, -0.001465, 0.107278, -0.000895, -0.047611, 0.999977, 0.006598, -0.001774, -0.000289, -175.906528, -78.764701, 105.723567, , , 0.000000, , , 
61087, , 10.504094, 0.182977, -5.377359, 1.435642, -2.888529, 1.539848, 1.352868, -0.496584, -0.027113, -0.884521, 0.434082, -0.001465, 0.105174, 0.002178, -0.053499, 0.999974, 0.006764, -0.002483, -0.000136, -175.305657, -78.479722, 105.899736, , , 0.000000, , , 
61088, , 10.133083, 0.684176, -5.052111, 1.849983, -2.396967, 1.119030, 1.208554, -0.687118, 0.038144, -0.888916, 0.434082, 0.000488, 0.101502, 0.007165, -0.050130, 0.999976, 0.006043, -0.003436, 0.000191, -174.695161, -78.087986, 105.969074, , , 0.000000, , , 
61089, , 9.708720, 1.063318, -4.455795, 2.033682, -1.701405, 0.589839, 0.715708, -0.775529, 0.092045, -0.882324, 0.431885, 0.000732, 0.097254, 0.010836, -0.044143, 0.999986, 0.003579, -0.003878, 0.000460, -174.230471, -77.638083, 105.911583, , , 0.000000, , , 
61090, , 9.434603, 0.977579, -3.973811, 1.786033, -1.255421, 0.236776, 0.105287, -0.975833, 0.127246, -0.884766, 0.438232, 0.012939, 0.094532, 0.009857, -0.039272, 0.999988, 0.000526, -0.004879, 0.000636, -174.139784, -77.076123, 105.871969, , , 0.000000, , , 
61091, , 10.420743, 0.550343, -3.653086, 1.178183, -0.787391, 1.152243, -0.167989, -1.408873, 0.152952, -0.886963, 0.442627, 0.025391, 0.104457, 0.005553, -0.035800, 0.999975, -0.000840, -0.007044, 0.000765, -174.205352, -76.261610, 105.838776, , , 0.000000, , , 
61092, , 12.490381, 0.662881, -3.764765, 1.130444, -0.194393, 3.198946, -0.029324, -1.715605, 0.125720, -0.886963, 0.442627, 0.044189, 0.125216, 0.006702, -0.036575, 0.999963, -0.000147, -0.008578, 0.000629, -174.345494, -75.274429, 105.955013, , , 0.000000, , , 
61093, , 14.152677, 1.424380, -3.845474, 1.678844, 0.631002, 4.812422, -0.164443, -1.563732, 0.073306, -0.878174, 0.442383, 0.054688, 0.141817, 0.014265, -0.037358, 0.999969, -0.000822, -0.007819, 0.000367, -174.596525, -74.376031, 106.115776, , , 0.000000, , , 
61094, , 15.661202, 0.789700, -3.190768, 0.671063, 1.576296, 6.097675, -0.017103, -1.226326, 0.084407, -0.884521, 0.436035, 0.069336, 0.156800, 0.007960, -0.030947, 0.999981, -0.000086, -0.006132, 0.000422, -174.685630, -73.668609, 106.184994, , , 0.000000, , , 
61095, , 16.827938, 0.906069, -0.320019, -0.381600, 4.671917, 6.377672, 0.600716, -1.026949, 0.136500, -0.880371, 0.438232, 0.073486, 0.168287, 0.009183, -0.002309, 0.999982, 0.003004, -0.005135, 0.000682, -174.264034, -73.072828, 106.102453, , , 0.000000, , , 
61096, , 17.216143, 1.890111, 2.343687, -0.495158, 7.666846, 5.885485, 0.263593, -0.973238, 0.240351, -0.876221, 0.444580, 0.077637, 0.172022, 0.019076, 0.024299, 0.999987, 0.001318, -0.004866, 0.001202, -173.908366, -72.503179, 105.879585, , , 0.000000, , , 
61097, , 15.319081, -0.068271, 2.573322, -2.233418, 6.725142, 4.010633, -0.778131, -0.529927, 0.356557, -0.874023, 0.448975, 0.083740, 0.153123, -0.000309, 0.026141, 0.999987, -0.003891, -0.002650, 0.001783, -173.812511, -72.176818, 105.309304, , , 0.000000, , , 
61098, , 12.839779, -2.490627, 1.692378, -3.933540, 4.408114, 1.978103, -0.718253, -0.045555, 0.372163, -0.871826, 0.448975, 0.085693, 0.128440, -0.024606, 0.017042, 0.999992, -0.003591, -0.000228, 0.001861, -173.589928, -72.135044, 104.626066, , , 0.000000, , , 
61099, , 11.096792, -1.602170, 0.447464, -2.496228, 3.124012, 0.671361, 0.026172, 0.118627, 0.270492, -0.874268, 0.455322, 0.081299, 0.110992, -0.015872, 0.004407, 0.999999, 0.000131, 0.000593, 0.001352, -173.066657, -72.181906, 104.090279, , , 0.000000, , , 
61100, , 10.470373, -0.519107, -1.527115, -0.721238, 1.559679, 0.640896, 0.471840, 0.187277, 0.126413, -0.872070, 0.457520, 0.081299, 0.104693, -0.005089, -0.015381, 0.999997, 0.002359, 0.000936, 0.000632, -172.536903, -72.293951, 103.803552, , , 0.000000, , , 
61101, , 11.543311, 0.549970, -3.352586, 0.872872, 0.600013, 2.173467, 0.383328, 0.659115, -0.020384, -0.874512, 0.459717, 0.070801, 0.115322, 0.005553, -0.033895, 0.999993, 0.001917, 0.003296, -0.000102, -172.189488, -72.667144, 103.667702, , , 0.000000, , , 
61102, , 10.445951, -0.875223, 1.065690, -1.919153, 3.614191, -0.103234, 0.514748, 0.745043, -0.052851, -0.876465, 0.457520, 0.064697, 0.104496, -0.008807, 0.010245, 0.999990, 0.002574, 0.003725, -0.000264, -171.794740, -73.107703, 103.547023, , , 0.000000, , , 
61103, , 11.253947, -0.262638, 3.512552, -2.281508, 6.185754, -0.035704, 0.124231, 0.232130, -0.135256, -0.874268, 0.453125, 0.066895, 0.112578, -0.002724, 0.034993, 0.999999, 0.000621, 0.001161, -0.000676, -171.909212, -73.247690, 103.739107, , , 0.000000, , , 
61104, , 10.838658, -1.281840, -0.678204, -1.688111, 1.941039, 0.815675, 0.120401, 0.332833, -0.145095, -0.876465, 0.453125, 0.056396, 0.108366, -0.012893, -0.006970, 0.999998, 0.000602, 0.001664, -0.000725, -172.040510, -73.460629, 103.929779, , , 0.000000, , , 
61105, , 10.338795, -0.954298, -2.948404, -0.514095, -0.131079, 0.967518, 0.706825, 0.335517, -0.135508, -0.876221, 0.448975, 0.054443, 0.103332, -0.009508, -0.029691, 0.999992, 0.003534, 0.001678, -0.000678, -171.798583, -73.659230, 104.097883, , , 0.000000, , , 
61106, , 10.515207, 0.159668, -1.377048, -0.055367, 1.691238, 0.657647, 1.077215, 0.314211, -0.097775, -0.876465, 0.451172, 0.041748, 0.105131, 0.001620, -0.013927, 0.999984, 0.005386, 0.001571, -0.000489, -171.296984, -73.861505, 104.202155, , , 0.000000, , , 
61107, , 10.064145, 0.865016, -0.477336, 0.296062, 2.613515, -0.048212, 0.971297, 0.266328, -0.055764, -0.878662, 0.453369, 0.035645, 0.100637, 0.008646, -0.004865, 0.999987, 0.004856, 0.001332, -0.000279, -170.761569, -74.014564, 104.222185, , , 0.000000, , , 
61108, , 9.845006, 0.454900, -1.554106, 0.363640, 1.431948, 0.054612, 0.964162, 0.145575, -0.045750, -0.878662, 0.451172, 0.035645, 0.098440, 0.004602, -0.015591, 0.999988, 0.004821, 0.000728, -0.000229, -170.256294, -74.120324, 104.254523, , , 0.000000, , , 
61109, , 9.550051, 0.899999, -1.610790, 0.828989, 1.471544, -0.233783, 0.947007, 0.322966, -0.069348, -0.880859, 0.453369, 0.029297, 0.095478, 0.009044, -0.016219, 0.999987, 0.004735, 0.001615, -0.000347, -169.732543, -74.306800, 104.272161, , , 0.000000, , , 
61110, , 8.570909, 0.982934, -1.359754, 0.883969, 1.441412, -1.244350, 0.560652, 0.471236, -0.087007, -0.878662, 0.451172, 0.022949, 0.085681, 0.009831, -0.013772, 0.999993, 0.002803, 0.002356, -0.000435, -169.432772, -74.594080, 104.275179, , , 0.000000, , , 
61111, , 7.907011, 0.660212, -1.357852, 0.645023, 1.108208, -1.865600, 0.336137, 0.411995, -0.121125, -0.882812, 0.448975, 0.019043, 0.079046, 0.006577, -0.013730, 0.999996, 0.001681, 0.002060, -0.000606, -169.324629, -74.836212, 104.360743, , , 0.000000, , , 
61112, , 7.711426, 0.775984, -1.238709, 0.719084, 1.181237, -2.086745, 0.394736, 0.359639, -0.162731, -0.885010, 0.444824, 0.006592, 0.077098, 0.007722, -0.012510, 0.999996, 0.001974, 0.001798, -0.000814, -169.326358, -75.067808, 104.576930, , , 0.000000, , , 
61113, , 7.550142, 1.226221, -1.090053, 1.077280, 1.435688, -2.297722, 0.372956, 0.352138, -0.189064, -0.885254, 0.453369, 0.004150, 0.075494, 0.012211, -0.011011, 0.999996, 0.001865, 0.001761, -0.000945, -169.367885, -75.283455, 104.838910, , , 0.000000, , , 
61114, , 7.426588, 1.200334, -1.050207, 1.044553, 1.402805, -2.420872, 0.296380, 0.326688, -0.201732, -0.884766, 0.442627, 0.002441, 0.074261, 0.011944, -0.010606, 0.999997, 0.001482, 0.001633, -0.001009, -169.521580, -75.506959, 105.158425, , , 0.000000, , , 
61115, , 7.315272, 1.252320, -1.161303, 1.144832, 1.279006, -2.499439, 0.245339, 0.312667, -0.177994, -0.884766, 0.442627, -0.001709, 0.073146, 0.012472, -0.011712, 0.999998, 0.001227, 0.001563, -0.000890, -169.639169, -75.698970, 105.422906, , , 0.000000, , , 
61116, , 7.440227, 1.468857, -1.181184, 1.340501, 1.358311, -2.378462, 0.063333, 0.330448, -0.141786, -0.887207, 0.448975, 0.000244, 0.074393, 0.014640, -0.011930, 0.999998, 0.000317, 0.001652, -0.000709, -169.823218, -75.914839, 105.632636, , , 0.000000, , , 
61117, , 7.307050, 1.244695, -1.433441, 1.256798, 0.985118, -2.433870, -0.207314, 0.305037, -0.092915, -0.889160, 0.442627, -0.003906, 0.073054, 0.012398, -0.014459, 0.999998, -0.001037, 0.001525, -0.000465, -170.023027, -76.093639, 105.714060, , , 0.000000, , , 
61118, , 7.285968, 1.685660, -1.187911, 1.553250, 1.358049, -2.527017, -0.198667, 0.220527, -0.074807, -0.885010, 0.444824, -0.001709, 0.072853, 0.016817, -0.011976, 0.999999, -0.000993, 0.001103, -0.000374, -170.248850, -76.235711, 105.807987, , , 0.000000, , , 
61119, , 7.362439, 0.929250, -1.771590, 1.112911, 0.522726, -2.283033, -0.240226, 0.194807, -0.053971, -0.885010, 0.444824, -0.003906, 0.073610, 0.009251, -0.017799, 0.999999, -0.001201, 0.000974, -0.000270, -170.427886, -76.348361, 105.848468, , , 0.000000, , , 
61120, , 7.436736, 1.291919, -1.624476, 1.375355, 0.802764, -2.257758, -0.103627, 0.202748, -0.041982, -0.882812, 0.442627, -0.003906, 0.074354, 0.012895, -0.016327, 0.999999, -0.000518, 0.001014, -0.000210, -170.528683, -76.475686, 105.863459, , , 0.000000, , , 
61121, , 7.511405, 1.746719, -1.282428, 1.640593, 1.293998, -2.279372, -0.339889, 0.175018, -0.041126, -0.885010, 0.444824, -0.006104, 0.075106, 0.017430, -0.012920, 0.999998, -0.001699, 0.000875, -0.000206, -170.745407, -76.575899, 105.883877, , , 0.000000, , , 
61122, , 7.715640, 0.572976, -2.229003, 0.956168, -0.010842, -1.818100, -0.504066, 0.212620, -0.058415, -0.886963, 0.438232, -0.003662, 0.077134, 0.005651, -0.022386, 0.999996, -0.002520, 0.001063, -0.000292, -171.114697, -76.711156, 105.937275, , , 0.000000, , , 
61123, , 7.663913, 0.863042, -2.131098, 1.178205, 0.162279, -1.900201, -0.288447, 0.195976, -0.070705, -0.889160, 0.438232, -0.007812, 0.076621, 0.008573, -0.021398, 0.999998, -0.001442, 0.000980, -0.000354, -171.370315, -76.825762, 106.027849, , , 0.000000, , , 
61124, , 7.756446, 0.762861, -2.136594, 1.076311, 0.114260, -1.804073, -0.474148, 0.120424, -0.074018, -0.888916, 0.436279, -0.005859, 0.077554, 0.007549, -0.021431, 0.999997, -0.002371, 0.000602, -0.000370, -171.830218, -76.911458, 106.202153, , , 0.000000, , , 
61125, , 8.126199, 0.513379, -2.411354, 0.928146, -0.166603, -1.373252, -0.310306, 0.088977, -0.073638, -0.889160, 0.440430, -0.003906, 0.081253, 0.005066, -0.024158, 0.999999, -0.001552, 0.000445, -0.000368, -172.150096, -76.965319, 106.345729, , , 0.000000, , , 
61126, , 8.319765, 1.056968, -1.958968, 1.220861, 0.481855, -1.300900, -0.447944, 0.053650, -0.048471, -0.891357, 0.442627, -0.003906, 0.083195, 0.010506, -0.019636, 0.999997, -0.002240, 0.000268, -0.000242, -172.554583, -77.010596, 106.478154, , , 0.000000, , , 
61127, , 8.490726, 0.755948, -2.402305, 1.102530, -0.007837, -1.025235, -0.470538, 0.013402, -0.012844, -0.886719, 0.429688, -0.003418, 0.084906, 0.007497, -0.024046, 0.999997, -0.002353, 0.000067, -0.000064, -172.844125, -77.016683, 106.496293, , , 0.000000, , , 
61128, , 8.478084, 1.433807, -2.197380, 1.635163, 0.427337, -1.100294, -0.630041, 0.024176, 0.023661, -0.886963, 0.438232, 0.000488, 0.084776, 0.014279, -0.022029, 0.999995, -0.003150, 0.000121, 0.000118, -173.189263, -77.041503, 106.462527, , , 0.000000, , , 
61129, , 8.272678, 0.704336, -3.224705, 1.367806, -0.834754, -1.051164, -0.593269, 0.031730, 0.060687, -0.884766, 0.436035, 0.006836, 0.082720, 0.006973, -0.032281, 0.999996, -0.002966, 0.000159, 0.000303, -173.362279, -77.053060, 106.288899, , , 0.000000, , , 
61130, , 7.671660, 1.166287, -3.740030, 2.020144, -1.258520, -1.533946, -0.307771, -0.001787, 0.081059, -0.886963, 0.438232, 0.002441, 0.076712, 0.011636, -0.037418, 0.999999, -0.001539, -0.000009, 0.000405, -173.384072, -77.056273, 106.106821, , , 0.000000, , , 
61131, , 7.181269, 1.693734, -4.140681, 2.682532, -1.527736, -1.935212, -0.474568, -0.067262, 0.096890, -0.886963, 0.444824, 0.008545, 0.071818, 0.016874, -0.041423, 0.999997, -0.002373, -0.000336, 0.000484, -173.428272, -77.009199, 105.870738, , , 0.000000, , , 
61132, , 7.080209, 1.691032, -4.527635, 2.810434, -1.907039, -1.941663, -0.795167, -0.264583, 0.111221, -0.891113, 0.436035, 0.015137, 0.070853, 0.016770, -0.045250, 0.999991, -0.003976, -0.001323, 0.000556, -173.717206, -76.862357, 105.677960, , , 0.000000, , , 
61133, , 7.660493, 1.256729, -4.294895, 2.255329, -1.726058, -1.407764, -0.815718, -0.415867, 0.114492, -0.886963, 0.438232, 0.023438, 0.076687, 0.012436, -0.042840, 0.999989, -0.004079, -0.002079, 0.000572, -174.008659, -76.616049, 105.494758, , , 0.000000, , , 
61134, , 8.524481, 1.268837, -3.177356, 1.776465, -0.500680, -0.814596, -1.004694, -0.535489, 0.120105, -0.884766, 0.444824, 0.027344, 0.085322, 0.012581, -0.031609, 0.999984, -0.005023, -0.002677, 0.000601, -174.499422, -76.311034, 105.396794, , , 0.000000, , , 
61135, , 9.412795, 0.315951, -3.072157, 0.759634, -0.506956, 0.051612, -0.997544, -0.531131, 0.132631, -0.884766, 0.442627, 0.040039, 0.094207, 0.003070, -0.030487, 0.999984, -0.004988, -0.002656, 0.000663, -174.871525, -75.998637, 105.188872, , , 0.000000, , , 
61136, , 9.908773, 0.137244, -3.179807, 0.563678, -0.511774, 0.566808, -0.859286, -0.494702, 0.136199, -0.884766, 0.444580, 0.046143, 0.099165, 0.001304, -0.031559, 0.999987, -0.004296, -0.002474, 0.000681, -175.189616, -75.719384, 104.990558, , , 0.000000, , , 
61137, , 10.186459, 0.250917, -3.357868, 0.680001, -0.525967, 0.881371, -0.822866, -0.511963, 0.098370, -0.888916, 0.440430, 0.054688, 0.101949, 0.002422, -0.033328, 0.999988, -0.004114, -0.002560, 0.000492, -175.528534, -75.420138, 104.851141, , , 0.000000, , , 
61138, , 10.449599, -0.312636, -3.891972, 0.265348, -1.090943, 1.285891, -0.596225, -0.505208, 0.033623, -0.889160, 0.446777, 0.058594, 0.104594, -0.003224, -0.038646, 0.999992, -0.002981, -0.002526, 0.000168, -175.932280, -75.139914, 104.905837, , , 0.000000, , , 
61139, , 10.263225, -0.442032, -4.162576, 0.203572, -1.377241, 1.183570, -0.364233, -0.512414, -0.047832, -0.886963, 0.442627, 0.064941, 0.102737, -0.004520, -0.041354, 0.999995, -0.001821, -0.002562, -0.000239, -176.310930, -74.846576, 105.079210, , , 0.000000, , , 
61140, , 10.022424, -0.741736, -5.012986, 0.166603, -2.259276, 1.187163, 0.030520, -0.607506, -0.113158, -0.884766, 0.446777, 0.071289, 0.100372, -0.007467, -0.049826, 0.999995, 0.000153, -0.003038, -0.000566, -176.648867, -74.515474, 105.441601, , , 0.000000, , , 
61141, , 10.216638, -0.643722, -5.626665, 0.414685, -2.669200, 1.552009, 0.480898, -0.703914, -0.170326, -0.886963, 0.442383, 0.073486, 0.102358, -0.006390, -0.055922, 0.999991, 0.002404, -0.003520, -0.000852, -176.796699, -74.116169, 105.878722, , , 0.000000, , , 
61142, , 11.891684, -0.122530, -4.921884, 0.537246, -1.341198, 2.976527, 0.529558, -0.700091, -0.190806, -0.882324, 0.438232, 0.086182, 0.119087, -0.001209, -0.048805, 0.999990, 0.002648, -0.003500, -0.000954, -176.975825, -73.732361, 106.370607, , , 0.000000, , , 
61143, , 13.860010, -0.378115, -3.559832, -0.327379, 0.410156, 4.492536, 0.389398, -0.506075, -0.199163, -0.888916, 0.438232, 0.088135, 0.138686, -0.003850, -0.035255, 0.999994, 0.001947, -0.002530, -0.000996, -177.184464, -73.446393, 106.818040, , , 0.000000, , , 
61144, , 15.017222, -0.828322, -2.118070, -1.354974, 1.924422, 5.192302, 0.631842, -0.360824, -0.247531, -0.888672, 0.433838, 0.082031, 0.150200, -0.008403, -0.020936, 0.999993, 0.003159, -0.001804, -0.001238, -177.377040, -73.249334, 107.384745, , , 0.000000, , , 
61145, , 15.835140, -0.223763, -0.242109, -1.527143, 4.080231, 5.414900, 0.942159, -0.394370, -0.322182, -0.884521, 0.438232, 0.081787, 0.158352, -0.002482, -0.002120, 0.999986, 0.004711, -0.001972, -0.001611, -177.474115, -73.029708, 108.047549, , , 0.000000, , , 
61146, , 15.975446, 0.492527, 0.547195, -1.206356, 5.099922, 5.296644, 0.809275, -0.250890, -0.366891, -0.886475, 0.429443, 0.080078, 0.159756, 0.004609, 0.005691, 0.999989, 0.004046, -0.001254, -0.001834, -177.749612, -72.905373, 108.808318, , , 0.000000, , , 
61147, , 13.964406, 0.875541, 0.006071, -0.527477, 4.178179, 3.530305, 0.803278, 0.316636, -0.396114, -0.890869, 0.427490, 0.071777, 0.139661, 0.008479, -0.000126, 0.999989, 0.004016, 0.001583, -0.001981, -178.004180, -73.092929, 109.553072, , , 0.000000, , , 
61148, , 11.033027, 1.930725, -0.980866, 1.057680, 2.833139, 1.016528, 0.646590, 0.416130, -0.368824, -0.890869, 0.431885, 0.065430, 0.110345, 0.019136, -0.009976, 0.999991, 0.003233, 0.002081, -0.001844, -178.351236, -73.351102, 110.289001, , , 0.000000, , , 
61149, , 9.317082, 2.293165, -2.250070, 1.995795, 1.352021, -0.256632, -0.193626, 0.002187, -0.301764, -0.895264, 0.429688, 0.069580, 0.093205, 0.022769, -0.022524, 0.999998, -0.000968, 0.000011, -0.001509, -179.034969, -73.354205, 110.884111, , , 0.000000, , , 
61150, , 9.191949, 0.741732, -3.097358, 0.830412, -0.014951, -0.120129, -0.705393, -0.360401, -0.235818, -0.890625, 0.418701, 0.080322, 0.091984, 0.007200, -0.030834, 0.999991, -0.003527, -0.001802, -0.001179, -179.914517, -73.162243, 111.360362, , , 0.000000, , , 
61151, , 10.309738, 0.108449, -1.569970, -0.453114, 1.430322, 0.507972, -0.334230, -0.260102, -0.178092, -0.901367, 0.421143, 0.078125, 0.103119, 0.000967, -0.015567, 0.999997, -0.001671, -0.001301, -0.000890, 179.565139, -73.010895, 111.701292, , , 0.000000, , , 
