PacketCounter, SampleTimeFine, Acc_X, Acc_Y, Acc_Z, FreeAcc_X, FreeAcc_Y, FreeAcc_Z, Gyr_X, Gyr_Y, Gyr_Z, Mag_X, Mag_Y, Mag_Z, VelInc_X, VelInc_Y, VelInc_Z, OriInc_q0, OriInc_q1, OriInc_q2, OriInc_q3, Roll, Pitch, Yaw, Latitude, Longitude, Altitude, Vel_X, Vel_Y, Vel_Z
60696, , 9.439054, -0.365034, -2.066359, -0.000000, -0.000000, -0.143208, 0.041574, 0.004397, -0.003942, -0.855469, -0.329834, 0.219482, 0.094390, -0.003648, -0.020666, 1.000000, 0.000208, 0.000022, -0.000020, -169.989638, -77.465205, -95.954907, , , 0.000000, , , 
60697, , 9.465070, -0.386297, -2.176232, -0.000000, 0.000000, -0.092977, 0.020530, -0.014296, -0.002055, -0.853271, -0.338135, 0.217285, 0.094652, -0.003862, -0.021756, 1.000000, 0.000103, -0.000071, -0.000010, -169.934756, -76.859948, -97.770386, , , 0.000000, , , 
60698, , 9.502889, -0.393609, -2.429243, -0.000721, 0.287834, -0.000542, -0.009176, -0.035077, -0.000269, -0.851074, -0.335938, 0.213135, 0.095033, -0.003937, -0.024276, 1.000000, -0.000046, -0.000175, -0.000001, -169.991039, -77.140588, -96.841565, , , 0.000000, , , 
60699, , 9.577044, -0.328641, -2.508780, -0.070975, 0.341997, 0.086796, -0.045548, -0.037463, -0.006245, -0.857422, -0.333984, 0.217285, 0.095775, -0.003295, -0.025069, 1.000000, -0.000228, -0.000187, -0.000031, -170.048843, -77.120068, -96.809041, , , 0.000000, , , 
60700, , 9.566897, -0.394286, -2.467976, -0.000538, 0.306365, 0.070532, -0.044164, -0.010647, -0.014775, -0.853271, -0.333984, 0.225830, 0.095670, -0.003955, -0.024674, 1.000000, -0.000221, -0.000053, -0.000074, -170.113318, -77.121089, -96.771215, , , 0.000000, , , 
60701, , 9.515620, -0.300140, -2.308668, -0.081991, 0.156424, -0.018002, -0.003113, -0.018819, -0.014171, -0.853271, -0.335938, 0.221436, 0.095158, -0.003008, -0.023078, 1.000000, -0.000016, -0.000094, -0.000071, -170.158151, -77.111856, -96.727054, , , 0.000000, , , 
60702, , 9.513711, -0.276809, -2.097719, -0.091552, -0.053183, -0.067097, -0.019147, -0.025986, -0.012289, -0.851318, -0.331787, 0.223633, 0.095140, -0.002776, -0.020965, 1.000000, -0.000096, -0.000130, -0.000061, -170.214202, -77.090853, -96.678079, , , 0.000000, , , 
60703, , 9.578240, -0.345987, -2.016855, -0.018219, -0.145049, -0.019387, -0.017018, -0.020601, -0.005777, -0.851318, -0.335938, 0.219482, 0.095784, -0.003464, -0.020158, 1.000000, -0.000085, -0.000103, -0.000029, -170.246914, -77.079782, -96.654522, , , 0.000000, , , 
60704, , 9.615705, -0.419304, -2.152583, 0.046698, -0.019123, 0.049800, 0.029184, 0.002080, -0.004531, -0.853271, -0.335938, 0.217285, 0.096157, -0.004192, -0.021527, 1.000000, 0.000146, 0.000010, -0.000023, -170.243848, -77.077277, -96.638997, , , 0.000000, , , 
60705, , 9.600847, -0.353024, -2.298399, -0.027943, 0.123796, 0.064935, 0.031914, 0.015417, 0.000300, -0.853516, -0.331787, 0.219482, 0.096007, -0.003526, -0.022992, 1.000000, 0.000160, 0.000077, 0.000001, -170.218290, -77.085953, -96.646458, , , 0.000000, , , 
60706, , 9.547277, -0.320126, -2.463029, -0.069505, 0.295849, 0.047694, 0.000261, 0.012409, 0.005006, -0.851318, -0.335938, 0.223633, 0.095471, -0.003199, -0.024636, 1.000000, 0.000001, 0.000062, 0.000025, -170.201577, -77.093193, -96.664039, , , 0.000000, , , 
60707, , 9.593257, -0.304599, -2.427162, -0.084561, 0.250777, 0.084001, -0.011173, 0.005423, 0.005928, -0.853271, -0.338135, 0.219482, 0.095932, -0.003045, -0.024274, 1.000000, -0.000056, 0.000027, 0.000030, -170.191065, -77.095676, -96.681392, , , 0.000000, , , 
60708, , 9.552066, -0.283841, -2.347462, -0.099652, 0.181293, 0.025519, -0.023193, 0.016749, 0.004873, -0.851074, -0.340088, 0.217285, 0.095519, -0.002839, -0.023482, 1.000000, -0.000116, 0.000084, 0.000024, -170.191898, -77.098994, -96.693274, , , 0.000000, , , 
60709, , 9.515778, -0.381029, -2.135174, 0.010791, -0.011292, -0.052875, -0.036989, 0.010076, 0.000463, -0.855469, -0.333984, 0.217285, 0.095157, -0.003814, -0.021356, 1.000000, -0.000185, 0.000050, 0.000002, -170.207658, -77.104638, -96.698848, , , 0.000000, , , 
60710, , 9.595245, -0.418960, -2.135475, 0.047075, -0.026049, 0.026093, 0.019376, 0.008045, -0.003470, -0.849121, -0.340088, 0.217285, 0.095952, -0.004189, -0.021359, 1.000000, 0.000097, 0.000040, -0.000017, -170.208112, -77.108544, -96.688452, , , 0.000000, , , 
60711, , 9.585397, -0.192476, -2.070890, -0.175092, -0.096936, -0.006291, 0.020891, 0.013641, -0.005119, -0.851074, -0.338135, 0.221436, 0.095853, -0.001925, -0.020716, 1.000000, 0.000104, 0.000068, -0.000026, -170.202963, -77.116745, -96.681455, , , 0.000000, , , 
60712, , 9.592116, -0.275505, -1.937913, -0.083597, -0.223068, -0.025791, -0.033426, 0.013422, -0.012154, -0.855225, -0.340088, 0.223633, 0.095920, -0.002764, -0.019385, 1.000000, -0.000167, 0.000067, -0.000061, -170.256814, -77.121959, -96.646002, , , 0.000000, , , 
60713, , 9.549534, -0.426584, -1.895389, 0.072266, -0.245317, -0.070887, -0.028312, 0.032309, -0.010379, -0.855225, -0.338135, 0.217285, 0.095492, -0.004273, -0.018969, 1.000000, -0.000142, 0.000162, -0.000052, -170.284999, -77.141210, -96.633731, , , 0.000000, , , 
60714, , 9.431387, -0.600029, -2.220855, 0.230812, 0.107967, -0.108134, -0.006580, 0.005608, 0.004969, -0.849121, -0.333984, 0.217529, 0.094313, -0.005999, -0.022211, 1.000000, -0.000033, 0.000028, 0.000025, -170.283007, -77.142761, -96.639357, , , 0.000000, , , 
60715, , 9.501898, -0.479817, -2.914990, 0.069121, 0.759570, 0.108589, -0.005679, -0.063584, 0.014821, -0.851074, -0.340088, 0.219482, 0.095029, -0.004792, -0.029120, 1.000000, -0.000028, -0.000318, 0.000074, -170.276553, -77.105419, -96.649314, , , 0.000000, , , 
60716, , 9.386335, -0.149005, -3.076364, -0.266673, 0.917998, 0.019691, -0.066462, -0.077335, 0.002521, -0.851074, -0.340088, 0.217285, 0.093875, -0.001499, -0.030727, 1.000000, -0.000332, -0.000387, 0.000013, -170.341502, -77.055635, -96.621863, , , 0.000000, , , 
60717, , 9.285495, 0.107217, -2.762877, -0.498562, 0.615437, -0.156701, -0.133516, -0.075595, -0.013984, -0.851318, -0.331787, 0.217529, 0.092865, 0.001047, -0.027594, 1.000000, -0.000668, -0.000378, -0.000070, -170.483651, -77.014261, -96.554496, , , 0.000000, , , 
60718, , 9.353068, 0.010824, -2.456243, -0.381579, 0.298388, -0.154608, -0.115959, -0.050807, -0.018571, -0.853271, -0.338135, 0.219482, 0.093537, 0.000085, -0.024539, 1.000000, -0.000580, -0.000254, -0.000093, -170.641357, -76.974726, -96.464316, , , 0.000000, , , 
60719, , 9.387450, -0.089361, -2.324432, -0.272401, 0.162692, -0.146534, 0.003013, -0.041566, -0.011751, -0.855469, -0.335938, 0.221436, 0.093879, -0.000899, -0.023225, 1.000000, 0.000015, -0.000208, -0.000059, -170.685006, -76.952319, -96.417740, , , 0.000000, , , 
60720, , 9.573005, -0.095018, -2.228962, -0.263398, 0.021377, 0.013293, -0.022497, -0.041080, -0.008162, -0.851074, -0.340088, 0.221436, 0.095735, -0.000957, -0.022270, 1.000000, -0.000112, -0.000205, -0.000041, -170.783818, -76.913218, -96.333753, , , 0.000000, , , 
60721, , 9.681911, -0.322045, -2.152646, -0.033997, -0.069428, 0.110570, -0.071367, -0.008494, 0.001926, -0.851318, -0.335938, 0.217285, 0.096820, -0.003227, -0.021521, 1.000000, -0.000357, -0.000042, 0.000010, -170.823354, -76.908236, -96.335142, , , 0.000000, , , 
60722, , 9.629834, -0.475325, -2.185108, 0.120974, -0.021383, 0.072617, -0.030943, 0.018424, 0.012205, -0.853271, -0.333984, 0.215332, 0.096297, -0.004751, -0.021859, 1.000000, -0.000155, 0.000092, 0.000061, -170.860656, -76.904074, -96.320182, , , 0.000000, , , 
60723, , 9.816016, -0.470656, -2.413152, 0.099321, 0.159283, 0.304810, -0.029529, 0.002388, 0.011287, -0.849121, -0.338135, 0.219482, 0.098160, -0.004705, -0.024132, 1.000000, -0.000148, 0.000012, 0.000056, -170.849189, -76.904397, -96.349326, , , 0.000000, , , 
60724, , 9.929228, -0.495283, -2.565404, 0.114616, 0.282147, 0.450033, -0.064126, 0.030034, 0.007729, -0.846924, -0.342285, 0.210938, 0.099289, -0.004957, -0.025667, 1.000000, -0.000321, 0.000150, 0.000039, -170.891803, -76.908353, -96.348490, , , 0.000000, , , 
60725, , 9.835556, -0.246182, -2.395147, -0.122976, 0.131282, 0.311695, -0.023380, 0.066786, 0.008819, -0.853271, -0.333984, 0.217285, 0.098348, -0.002460, -0.023984, 1.000000, -0.000117, 0.000334, 0.000044, -170.857562, -76.945336, -96.397394, , , 0.000000, , , 
60726, , 9.533428, 0.014993, -2.040846, -0.356976, -0.152697, -0.070984, -0.064200, 0.067056, 0.008590, -0.855225, -0.340088, 0.215332, 0.095327, 0.000147, -0.020440, 1.000000, -0.000321, 0.000335, 0.000043, -170.889101, -76.971168, -96.409402, , , 0.000000, , , 
60727, , 9.457555, -0.151318, -1.844709, -0.179141, -0.314766, -0.182525, -0.064295, 0.031143, 0.011802, -0.855469, -0.331787, 0.219482, 0.094573, -0.001514, -0.018461, 1.000000, -0.000321, 0.000156, 0.000059, -170.884848, -76.987729, -96.451584, , , 0.000000, , , 
60728, , 9.532105, -0.276982, -1.898777, -0.057038, -0.272243, -0.093339, 0.019988, 0.042456, 0.007004, -0.855225, -0.340088, 0.215332, 0.095317, -0.002765, -0.019008, 1.000000, 0.000100, 0.000212, 0.000035, -170.894184, -76.998893, -96.435753, , , 0.000000, , , 
60729, , 9.530181, -0.279165, -2.009127, -0.061200, -0.160100, -0.070537, -0.004172, 0.043531, 0.005710, -0.853271, -0.338135, 0.219482, 0.095298, -0.002789, -0.020112, 1.000000, -0.000021, 0.000218, 0.000029, -170.865383, -77.023009, -96.467766, , , 0.000000, , , 
60730, , 9.447068, -0.537725, -2.254451, 0.189385, 0.111455, -0.087950, -0.045346, 0.056447, 0.002342, -0.849121, -0.338135, 0.208984, 0.094464, -0.005381, -0.022570, 1.000000, -0.000227, 0.000282, 0.000012, -170.932400, -77.046857, -96.430570, , , 0.000000, , , 
60731, , 9.283241, -0.569216, -2.631714, 0.206756, 0.520724, -0.163097, -0.029200, 0.030364, 0.008327, -0.853271, -0.340088, 0.215332, 0.092829, -0.005692, -0.026330, 1.000000, -0.000146, 0.000152, 0.000042, -170.916680, -77.063286, -96.463869, , , 0.000000, , , 
60732, , 9.190511, -0.482431, -2.990992, 0.107197, 0.885138, -0.176853, -0.053342, -0.049939, 0.003387, -0.853271, -0.338135, 0.211182, 0.091913, -0.004831, -0.029886, 1.000000, -0.000267, -0.000250, 0.000017, -171.001085, -77.027345, -96.414396, , , 0.000000, , , 
60733, , 9.192344, -0.137017, -3.189976, -0.244698, 1.056445, -0.142220, -0.063630, -0.111799, -0.013863, -0.849121, -0.335938, 0.215332, 0.091941, -0.001387, -0.031848, 1.000000, -0.000318, -0.000559, -0.000069, -171.114675, -76.965316, -96.335242, , , 0.000000, , , 
60734, , 9.104845, 0.205217, -2.748970, -0.557131, 0.618176, -0.336159, -0.148132, -0.119796, -0.022034, -0.855469, -0.333984, 0.215332, 0.091065, 0.002022, -0.027437, 1.000000, -0.000741, -0.000599, -0.000110, -171.339102, -76.876891, -96.200459, , , 0.000000, , , 
60735, , 9.380217, 0.011679, -2.457543, -0.350549, 0.269243, -0.125957, -0.180954, -0.110964, -0.022898, -0.853271, -0.337891, 0.208984, 0.093816, 0.000084, -0.024523, 0.999999, -0.000905, -0.000555, -0.000114, -171.538830, -76.815995, -96.101834, , , 0.000000, , , 
60736, , 9.656225, -0.167004, -2.221942, -0.161371, -0.028850, 0.095931, -0.104325, -0.061927, -0.007956, -0.851074, -0.338135, 0.217285, 0.096569, -0.001685, -0.022189, 1.000000, -0.000522, -0.000310, -0.000040, -171.700019, -76.756501, -96.009607, , , 0.000000, , , 
60737, , 9.867639, -0.328419, -2.006236, 0.006332, -0.284496, 0.258169, -0.069018, -0.005047, 0.000450, -0.851074, -0.340088, 0.210938, 0.098677, -0.003291, -0.020059, 1.000000, -0.000345, -0.000025, 0.000002, -171.740165, -76.753647, -96.009006, , , 0.000000, , , 
60738, , 10.005632, -0.488345, -1.824323, 0.173441, -0.488726, 0.356401, -0.008290, 0.058210, 0.000909, -0.853027, -0.340088, 0.213135, 0.100051, -0.004884, -0.018272, 1.000000, -0.000041, 0.000291, 0.000005, -171.793692, -76.765515, -95.969869, , , 0.000000, , , 
60739, , 10.001709, -0.507456, -1.988132, 0.184560, -0.319879, 0.390644, 0.021253, 0.096681, 0.015008, -0.853271, -0.338135, 0.211182, 0.100008, -0.005065, -0.019930, 1.000000, 0.000106, 0.000483, 0.000075, -171.711322, -76.819156, -96.041990, , , 0.000000, , , 
60740, , 9.841778, -0.348393, -2.261469, 0.017547, -0.015799, 0.291551, 0.003507, 0.099350, 0.020167, -0.851074, -0.338135, 0.208984, 0.098407, -0.003474, -0.022664, 1.000000, 0.000018, 0.000497, 0.000101, -171.677537, -76.860849, -96.083464, , , 0.000000, , , 
60741, , 9.661560, -0.150857, -2.253334, -0.176431, 0.020224, 0.107720, -0.071213, 0.105825, 0.015814, -0.850830, -0.346191, 0.213135, 0.096604, -0.001509, -0.022584, 1.000000, -0.000356, 0.000529, 0.000079, -171.641986, -76.919599, -96.161889, , , 0.000000, , , 
60742, , 9.510446, -0.211720, -2.053000, -0.101654, -0.131599, -0.082294, -0.064591, 0.083641, 0.014681, -0.851074, -0.335938, 0.213135, 0.095096, -0.002117, -0.020569, 1.000000, -0.000323, 0.000418, 0.000073, -171.681533, -76.955323, -96.167520, , , 0.000000, , , 
60743, , 9.427254, -0.068392, -1.846908, -0.234685, -0.311406, -0.213896, -0.037820, 0.064340, 0.005379, -0.853271, -0.337891, 0.206787, 0.094267, -0.000685, -0.018499, 1.000000, -0.000189, 0.000322, 0.000027, -171.667022, -76.991438, -96.204697, , , 0.000000, , , 
60744, , 9.538950, -0.038131, -1.896619, -0.267068, -0.285640, -0.094803, -0.129929, 0.040488, 0.004215, -0.851074, -0.342285, 0.213135, 0.095386, -0.000392, -0.018985, 1.000000, -0.000650, 0.000202, 0.000021, -171.763742, -77.004928, -96.190583, , , 0.000000, , , 
60745, , 9.727639, -0.286619, -1.874246, -0.020566, -0.336493, 0.092273, -0.152640, 0.067701, 0.006324, -0.855225, -0.340088, 0.210938, 0.097270, -0.002877, -0.018773, 1.000000, -0.000763, 0.000339, 0.000032, -171.811578, -77.042889, -96.231281, , , 0.000000, , , 
60746, , 9.894807, -0.379159, -1.852863, 0.072859, -0.384013, 0.253657, -0.079620, 0.125927, 0.005869, -0.853027, -0.340088, 0.202637, 0.098936, -0.003796, -0.018589, 1.000000, -0.000398, 0.000630, 0.000029, -171.878467, -77.106534, -96.216120, , , 0.000000, , , 
60747, , 10.028585, -0.367092, -1.573956, 0.067682, -0.669653, 0.322971, -0.050509, 0.199733, 0.005083, -0.859375, -0.340088, 0.202637, 0.100270, -0.003672, -0.015839, 0.999999, -0.000253, 0.000999, 0.000025, -171.823657, -77.219458, -96.302046, , , 0.000000, , , 
60748, , 10.278976, -0.551283, -1.253846, 0.258270, -1.007660, 0.504834, -0.044047, 0.249433, 0.007725, -0.857178, -0.340088, 0.202637, 0.102774, -0.005512, -0.012665, 0.999999, -0.000220, 0.001247, 0.000039, -171.787762, -77.367525, -96.369454, , , 0.000000, , , 
60749, , 10.378671, -0.747141, -1.064692, 0.455938, -1.178911, 0.570510, 0.061682, 0.317149, 0.015104, -0.855469, -0.333740, 0.204834, 0.103770, -0.007460, -0.010814, 0.999999, 0.000308, 0.001586, 0.000076, -171.595961, -77.546180, -96.529786, , , 0.000000, , , 
60750, , 10.229990, -0.708928, -0.954626, 0.421236, -1.218294, 0.405179, 0.185353, 0.351736, 0.030016, -0.857178, -0.340088, 0.198486, 0.102284, -0.007065, -0.009733, 0.999998, 0.000927, 0.001759, 0.000150, -171.284758, -77.755873, -96.739931, , , 0.000000, , , 
60751, , 9.681966, -0.620640, -1.340007, 0.325069, -0.692438, -0.048671, 0.247059, 0.359914, 0.040448, -0.850830, -0.342041, 0.196289, 0.096797, -0.006170, -0.013582, 0.999998, 0.001235, 0.001800, 0.000202, -170.888175, -77.956077, -97.000823, , , 0.000000, , , 
60752, , 9.180105, -0.366721, -2.056387, 0.046507, 0.139728, -0.399092, 0.269516, 0.284064, 0.054360, -0.857178, -0.337891, 0.194336, 0.091773, -0.003614, -0.020699, 0.999998, 0.001348, 0.001420, 0.000272, -170.465368, -78.139163, -97.270897, , , 0.000000, , , 
60753, , 8.804994, 0.032898, -2.825599, -0.386628, 0.973301, -0.624859, 0.157906, 0.119963, 0.072372, -0.855225, -0.335938, 0.190186, 0.088033, 0.000383, -0.028309, 0.999999, 0.000790, 0.000600, 0.000362, -170.124538, -78.199987, -97.526720, , , 0.000000, , , 
60754, , 8.772358, 0.525947, -3.120904, -0.898223, 1.259255, -0.616036, -0.056476, 0.005385, 0.063431, -0.861572, -0.329590, 0.192383, 0.087721, 0.005278, -0.031213, 1.000000, -0.000282, 0.000027, 0.000317, -169.981287, -78.216768, -97.704526, , , 0.000000, , , 
60755, , 8.684249, 0.842582, -3.000305, -1.206587, 1.145457, -0.737445, -0.242189, -0.075695, 0.035878, -0.859375, -0.340088, 0.187988, 0.086852, 0.008405, -0.029980, 0.999999, -0.001211, -0.000378, 0.000179, -170.059288, -78.170577, -97.766645, , , 0.000000, , , 
60756, , 8.642208, 0.783053, -2.682885, -1.124883, 0.840457, -0.839000, -0.340034, -0.111028, 0.019383, -0.859375, -0.340088, 0.192139, 0.086436, 0.007793, -0.026794, 0.999998, -0.001700, -0.000555, 0.000097, -170.315932, -78.113468, -97.708712, , , 0.000000, , , 
60757, , 8.580753, 0.377926, -2.826542, -0.716489, 0.996420, -0.854157, -0.278042, -0.150234, 0.012455, -0.857178, -0.337891, 0.192383, 0.085829, 0.003745, -0.028206, 0.999999, -0.001390, -0.000751, 0.000062, -170.509780, -78.027535, -97.673465, , , 0.000000, , , 
60758, , 8.762498, -0.144497, -2.905300, -0.191923, 1.033797, -0.640042, -0.183100, -0.207834, 0.012138, -0.859375, -0.337891, 0.200684, 0.087655, -0.001466, -0.028961, 0.999999, -0.000916, -0.001039, 0.000061, -170.809791, -77.904512, -97.485060, , , 0.000000, , , 
60759, , 9.258295, -0.754797, -2.607466, 0.417921, 0.634735, -0.194630, -0.134112, -0.224900, 0.009936, -0.863525, -0.335938, 0.198486, 0.092613, -0.007561, -0.025965, 0.999999, -0.000671, -0.001125, 0.000050, -170.955472, -77.776527, -97.414710, , , 0.000000, , , 
60760, , 9.577338, -1.117054, -2.256005, 0.787640, 0.209478, 0.056380, -0.033128, -0.167686, 0.012063, -0.851074, -0.337891, 0.196533, 0.095793, -0.011168, -0.022478, 1.000000, -0.000166, -0.000838, 0.000060, -171.131238, -77.660462, -97.266539, , , 0.000000, , , 
60761, , 9.903002, -0.963565, -1.887651, 0.635882, -0.237618, 0.291782, 0.047065, -0.122850, 0.013427, -0.859375, -0.340088, 0.200684, 0.099042, -0.009625, -0.018818, 1.000000, 0.000235, -0.000614, 0.000067, -171.119169, -77.589817, -97.251329, , , 0.000000, , , 
60762, , 10.069517, -0.853594, -1.841557, 0.523315, -0.333877, 0.440595, 0.037506, -0.077929, 0.016500, -0.859375, -0.337891, 0.200684, 0.100703, -0.008524, -0.018378, 1.000000, 0.000188, -0.000390, 0.000083, -171.159947, -77.528989, -97.198007, , , 0.000000, , , 
60763, , 10.033226, -0.561768, -1.726275, 0.233026, -0.452039, 0.370759, 0.080939, -0.046020, 0.032433, -0.859375, -0.337891, 0.200684, 0.100337, -0.005594, -0.017242, 1.000000, 0.000405, -0.000230, 0.000162, -171.049316, -77.500141, -97.263865, , , 0.000000, , , 
60764, , 10.083993, -0.034045, -1.568347, -0.293989, -0.637061, 0.368448, 0.044670, -0.040120, 0.050149, -0.857422, -0.331787, 0.198730, 0.100843, -0.000312, -0.015663, 1.000000, 0.000223, -0.000201, 0.000251, -170.961403, -77.462697, -97.335153, , , 0.000000, , , 
60765, , 10.151185, 0.112411, -1.505058, -0.445496, -0.721076, 0.415019, -0.045464, -0.035555, 0.058758, -0.851074, -0.335938, 0.198486, 0.101514, 0.001151, -0.015033, 1.000000, -0.000227, -0.000178, 0.000294, -170.852837, -77.437330, -97.473107, , , 0.000000, , , 
60766, , 10.008219, 0.218375, -1.588406, -0.554369, -0.613979, 0.289336, -0.026695, -0.010523, 0.059175, -0.861572, -0.333740, 0.200684, 0.100082, 0.002211, -0.015879, 1.000000, -0.000133, -0.000053, 0.000296, -170.748230, -77.426586, -97.601367, , , 0.000000, , , 
60767, , 9.774545, 0.277990, -1.683850, -0.615081, -0.471878, 0.079398, -0.083602, 0.009444, 0.057338, -0.857178, -0.340088, 0.198486, 0.097744, 0.002801, -0.016844, 1.000000, -0.000418, 0.000047, 0.000287, -170.647024, -77.426706, -97.754187, , , 0.000000, , , 
60768, , 9.434826, -0.000525, -1.736838, -0.328485, -0.338772, -0.230940, -0.142609, 0.001393, 0.045320, -0.859619, -0.333740, 0.200684, 0.094348, 0.000004, -0.017369, 1.000000, -0.000713, 0.000007, 0.000227, -170.692584, -77.430552, -97.796243, , , 0.000000, , , 
60769, , 9.368648, -0.310407, -1.562516, -0.013187, -0.489751, -0.322200, -0.158657, -0.039046, 0.038951, -0.859619, -0.331787, 0.194336, 0.093690, -0.003098, -0.015604, 1.000000, -0.000793, -0.000195, 0.000195, -170.701283, -77.404986, -97.880535, , , 0.000000, , , 
60770, , 9.494236, -0.612968, -1.387940, 0.291666, -0.683213, -0.226719, -0.171647, -0.026454, 0.027935, -0.861572, -0.331787, 0.194336, 0.094945, -0.006128, -0.013862, 1.000000, -0.000858, -0.000132, 0.000140, -170.788914, -77.399111, -97.894455, , , 0.000000, , , 
60771, , 9.627280, -0.844699, -1.482857, 0.516439, -0.617460, -0.068513, -0.134698, -0.004875, 0.025349, -0.857422, -0.333740, 0.198486, 0.096274, -0.008445, -0.014821, 1.000000, -0.000673, -0.000024, 0.000127, -170.803982, -77.394189, -97.958169, , , 0.000000, , , 
60772, , 9.659657, -0.760583, -1.592346, 0.428400, -0.516878, -0.016140, -0.043180, 0.009031, 0.033903, -0.859375, -0.333740, 0.194336, 0.096597, -0.007593, -0.015926, 1.000000, -0.000216, 0.000045, 0.000170, -170.760773, -77.413272, -98.027547, , , 0.000000, , , 
60773, , 9.562686, -0.601359, -1.751544, 0.265142, -0.344206, -0.082028, -0.048225, -0.020081, 0.049089, -0.857422, -0.333740, 0.198486, 0.095630, -0.005994, -0.017504, 1.000000, -0.000241, -0.000100, 0.000245, -170.672240, -77.397586, -98.146657, , , 0.000000, , , 
60774, , 9.547730, -0.430988, -1.857829, 0.089456, -0.241385, -0.079746, -0.072930, -0.062030, 0.064345, -0.859619, -0.331787, 0.198730, 0.095484, -0.004286, -0.018547, 1.000000, -0.000365, -0.000310, 0.000322, -170.588769, -77.375350, -98.273329, , , 0.000000, , , 
60775, , 9.326797, -0.249834, -1.942836, -0.091453, -0.120839, -0.283617, -0.066179, -0.083979, 0.069128, -0.855469, -0.331787, 0.196533, 0.093277, -0.002473, -0.019388, 1.000000, -0.000331, -0.000420, 0.000346, -170.487566, -77.321620, -98.416007, , , 0.000000, , , 
60776, , 9.089491, 0.000334, -1.903294, -0.337151, -0.118131, -0.532939, -0.081698, -0.107965, 0.067131, -0.857422, -0.335938, 0.200684, 0.090905, 0.000026, -0.018984, 1.000000, -0.000408, -0.000540, 0.000336, -170.412918, -77.271583, -98.537904, , , 0.000000, , , 
60777, , 8.892289, 0.059313, -1.874320, -0.392527, -0.116105, -0.734040, -0.106781, -0.150559, 0.054457, -0.859619, -0.331787, 0.202881, 0.088937, 0.000607, -0.018677, 1.000000, -0.000534, -0.000753, 0.000272, -170.401355, -77.181585, -98.612590, , , 0.000000, , , 
60778, , 8.892880, -0.253966, -1.903836, -0.080190, -0.096305, -0.715618, -0.126864, -0.176952, 0.039183, -0.859619, -0.329590, 0.198730, 0.088946, -0.002534, -0.018958, 0.999999, -0.000634, -0.000885, 0.000196, -170.489169, -77.092384, -98.596394, , , 0.000000, , , 
60779, , 9.218830, -0.689968, -1.871799, 0.344614, -0.211898, -0.389162, -0.090967, -0.191521, 0.024880, -0.859619, -0.333740, 0.200684, 0.092207, -0.006897, -0.018627, 0.999999, -0.000455, -0.000958, 0.000124, -170.558366, -76.982033, -98.578959, , , 0.000000, , , 
60780, , 9.788870, -1.069083, -1.959812, 0.703462, -0.262898, 0.199395, -0.019393, -0.161780, 0.004673, -0.855469, -0.327637, 0.211182, 0.097905, -0.010690, -0.019518, 1.000000, -0.000097, -0.000809, 0.000023, -170.633509, -76.910950, -98.510986, , , 0.000000, , , 
60781, , 10.105271, -1.345623, -2.126282, 0.965749, -0.182605, 0.554677, 0.065402, -0.123012, -0.005043, -0.857666, -0.329590, 0.200684, 0.101065, -0.013452, -0.021205, 1.000000, 0.000327, -0.000615, -0.000025, -170.656929, -76.842169, -98.448566, , , 0.000000, , , 
60782, , 10.164185, -1.317238, -2.125629, 0.931878, -0.203194, 0.611054, 0.154796, -0.078039, 0.007340, -0.861816, -0.325439, 0.202881, 0.101651, -0.013152, -0.021227, 1.000000, 0.000774, -0.000390, 0.000037, -170.543446, -76.810312, -98.467029, , , 0.000000, , , 
60783, , 10.197336, -1.343860, -1.895690, 0.957871, -0.437711, 0.592895, 0.190496, -0.029922, 0.010275, -0.859619, -0.331787, 0.204834, 0.101977, -0.013415, -0.018954, 1.000000, 0.000952, -0.000150, 0.000051, -170.420828, -76.792688, -98.480944, , , 0.000000, , , 
60784, , 10.262383, -1.166504, -1.511963, 0.780104, -0.821511, 0.564201, 0.317129, 0.028490, 0.004184, -0.859619, -0.327637, 0.207031, 0.102622, -0.011639, -0.015153, 0.999999, 0.001586, 0.000142, 0.000021, -170.147662, -76.830404, -98.567305, , , 0.000000, , , 
60785, , 10.037776, -0.709925, -1.294951, 0.332120, -0.981431, 0.280098, 0.383130, 0.089534, -0.003933, -0.859619, -0.327637, 0.207031, 0.100372, -0.007076, -0.013008, 0.999998, 0.001916, 0.000448, -0.000020, -169.898318, -76.881649, -98.598025, , , 0.000000, , , 
60786, , 9.679380, -0.398297, -1.380524, 0.023449, -0.806849, -0.060595, 0.348507, 0.137056, -0.011996, -0.859619, -0.329590, 0.207031, 0.096784, -0.003965, -0.013878, 0.999998, 0.001743, 0.000685, -0.000060, -169.583278, -76.983696, -98.705706, , , 0.000000, , , 
60787, , 9.416513, -0.437277, -1.563157, 0.061866, -0.554984, -0.273634, 0.267433, 0.135035, -0.022254, -0.857666, -0.327637, 0.205078, 0.094154, -0.004362, -0.015701, 0.999999, 0.001337, 0.000675, -0.000111, -169.421628, -77.062455, -98.714441, , , 0.000000, , , 
60788, , 9.375580, -0.610220, -1.723928, 0.225745, -0.364131, -0.270035, 0.303733, 0.154767, -0.031627, -0.861572, -0.329590, 0.200684, 0.093741, -0.006091, -0.017321, 0.999999, 0.001519, 0.000774, -0.000158, -169.185112, -77.180909, -98.769113, , , 0.000000, , , 
60789, , 9.336511, -0.524865, -1.857575, 0.133142, -0.210826, -0.281984, 0.353398, 0.165176, -0.034628, -0.853760, -0.321533, 0.211426, 0.093349, -0.005232, -0.018662, 0.999998, 0.001767, 0.000826, -0.000173, -168.987745, -77.278010, -98.763980, , , 0.000000, , , 
60790, , 9.150312, -0.554067, -2.054323, 0.153160, 0.045592, -0.419612, 0.408414, 0.182821, -0.044142, -0.862061, -0.321289, 0.205078, 0.091483, -0.005519, -0.020638, 0.999997, 0.002042, 0.000914, -0.000221, -168.686799, -77.411169, -98.819666, , , 0.000000, , , 
60791, , 8.866168, -0.526274, -2.182633, 0.123732, 0.249369, -0.670901, 0.484070, 0.165937, -0.070049, -0.865967, -0.323486, 0.207031, 0.088642, -0.005241, -0.021913, 0.999997, 0.002420, 0.000830, -0.000350, -168.499709, -77.512744, -98.727311, , , 0.000000, , , 
60792, , 8.700255, -0.457053, -2.467797, 0.036901, 0.580248, -0.776356, 0.534607, 0.127738, -0.099055, -0.859863, -0.319336, 0.209229, 0.086985, -0.004548, -0.024746, 0.999996, 0.002673, 0.000639, -0.000495, -168.265579, -77.621005, -98.640073, , , 0.000000, , , 
60793, , 8.716813, -0.296684, -2.730372, -0.145002, 0.837333, -0.713038, 0.617303, 0.098646, -0.116760, -0.859863, -0.325684, 0.211182, 0.087153, -0.002933, -0.027356, 0.999995, 0.003087, 0.000493, -0.000584, -168.155461, -77.690468, -98.390835, , , 0.000000, , , 
60794, , 8.750301, -0.132351, -2.738865, -0.320132, 0.838775, -0.686865, 0.634705, 0.033923, -0.127357, -0.857666, -0.323486, 0.213379, 0.087498, -0.001292, -0.027408, 0.999995, 0.003174, 0.000170, -0.000637, -168.012769, -77.736848, -98.151257, , , 0.000000, , , 
60795, , 9.029110, -0.198291, -2.547978, -0.255176, 0.597364, -0.451364, 0.583185, -0.062895, -0.107062, -0.855713, -0.319336, 0.209229, 0.090298, -0.001957, -0.025457, 0.999996, 0.002916, -0.000314, -0.000535, -167.985496, -77.714769, -97.837271, , , 0.000000, , , 
60796, , 9.640947, -0.444029, -2.543240, -0.035787, 0.474582, 0.156594, 0.600475, -0.129086, -0.084428, -0.861816, -0.327637, 0.219482, 0.096424, -0.004405, -0.025383, 0.999995, 0.003002, -0.000645, -0.000422, -167.856534, -77.661632, -97.607192, , , 0.000000, , , 
60797, , 9.901132, -0.278422, -2.264317, -0.191908, 0.123061, 0.345317, 0.564017, -0.149089, -0.050850, -0.857910, -0.317383, 0.217773, 0.099027, -0.002746, -0.022577, 0.999996, 0.002820, -0.000745, -0.000254, -167.741681, -77.584704, -97.393974, , , 0.000000, , , 
60798, , 9.601742, -0.111455, -1.910437, -0.325456, -0.187553, -0.029309, 0.339967, -0.224559, -0.017352, -0.855713, -0.321533, 0.223877, 0.096039, -0.001091, -0.018998, 0.999998, 0.001700, -0.001123, -0.000087, -167.661430, -77.468602, -97.271420, , , 0.000000, , , 
60799, , 9.456481, -0.059551, -1.675680, -0.354185, -0.415045, -0.224221, 0.248957, -0.314409, 0.000932, -0.855957, -0.319336, 0.226074, 0.094591, -0.000574, -0.016609, 0.999998, 0.001245, -0.001572, 0.000005, -167.684288, -77.292890, -97.101853, , , 0.000000, , , 
60800, , 9.277539, 0.374404, -1.192022, -0.737721, -0.914478, -0.525426, 0.268208, -0.358105, -0.003431, -0.855957, -0.319336, 0.228027, 0.092797, 0.003758, -0.011749, 0.999997, 0.001341, -0.001791, -0.000017, -167.690728, -77.099794, -96.929845, , , 0.000000, , , 
60801, , 9.357081, 0.625841, -0.719797, -0.941966, -1.449926, -0.567417, 0.120517, -0.422402, -0.019298, -0.855957, -0.319336, 0.234375, 0.093586, 0.006254, -0.006997, 0.999998, 0.000603, -0.002112, -0.000096, -167.885805, -76.865956, -96.658758, , , 0.000000, , , 
60802, , 9.642720, 0.261653, -0.563846, -0.566907, -1.670247, -0.312309, 0.036117, -0.427866, -0.025081, -0.849854, -0.317383, 0.240723, 0.096439, 0.002605, -0.005432, 0.999998, 0.000181, -0.002139, -0.000125, -168.114905, -76.646295, -96.395232, , , 0.000000, , , 
60803, , 9.961974, 0.057978, -0.588455, -0.369288, -1.742601, 0.006548, -0.025949, -0.433286, -0.010709, -0.849609, -0.321533, 0.236328, 0.099632, 0.000574, -0.005669, 0.999998, -0.000130, -0.002166, -0.000054, -168.361814, -76.404890, -96.156623, , , 0.000000, , , 
60804, , 10.094298, -0.253931, -0.534828, -0.052048, -1.836580, 0.130626, -0.224189, -0.440636, 0.018548, -0.849609, -0.319580, 0.240723, 0.100955, -0.002536, -0.005123, 0.999997, -0.001121, -0.002203, 0.000093, -168.645433, -76.178822, -95.984837, , , 0.000000, , , 
60805, , 10.163581, -0.833364, -0.616762, 0.516847, -1.767595, 0.236272, -0.322579, -0.425354, 0.055551, -0.845703, -0.315430, 0.249023, 0.101651, -0.008315, -0.005938, 0.999996, -0.001613, -0.002127, 0.000278, -168.891504, -75.933979, -95.921724, , , 0.000000, , , 
60806, , 10.044179, -1.116917, -0.785602, 0.784931, -1.589450, 0.167673, -0.293932, -0.382637, 0.084702, -0.845703, -0.317383, 0.246826, 0.100461, -0.011138, -0.007647, 0.999997, -0.001470, -0.001913, 0.000424, -169.001208, -75.739927, -95.961137, , , 0.000000, , , 
60807, , 9.773097, -1.160779, -1.112564, 0.802596, -1.243477, -0.019418, -0.309993, -0.348446, 0.105506, -0.849854, -0.313232, 0.247070, 0.097756, -0.011573, -0.010937, 0.999997, -0.001550, -0.001742, 0.000528, -169.090772, -75.532820, -96.051993, , , 0.000000, , , 
60808, , 9.552106, -1.263924, -1.226087, 0.895972, -1.100174, -0.203823, -0.340538, -0.316509, 0.101462, -0.847656, -0.321533, 0.253174, 0.095547, -0.012611, -0.012088, 0.999997, -0.001703, -0.001583, 0.000507, -169.122450, -75.383678, -96.196348, , , 0.000000, , , 
60809, , 9.239361, -1.180213, -1.171923, 0.822362, -1.113068, -0.527386, -0.243365, -0.294595, 0.096622, -0.847656, -0.319580, 0.250977, 0.092416, -0.011772, -0.011569, 0.999998, -0.001217, -0.001473, 0.000483, -169.170843, -75.207909, -96.290424, , , 0.000000, , , 
60810, , 9.009059, -1.017542, -1.180209, 0.661422, -1.082204, -0.758258, -0.131490, -0.318113, 0.083355, -0.847656, -0.319580, 0.249023, 0.090113, -0.010146, -0.011652, 0.999998, -0.000657, -0.001591, 0.000417, -169.147921, -75.061075, -96.372221, , , 0.000000, , , 
60811, , 8.758326, -0.790772, -1.336527, 0.426605, -0.915427, -0.975278, -0.126201, -0.363155, 0.077554, -0.847656, -0.319580, 0.257324, 0.087610, -0.007882, -0.013201, 0.999998, -0.000631, -0.001816, 0.000388, -169.198298, -74.848816, -96.394882, , , 0.000000, , , 
60812, , 8.760921, -0.706314, -1.319910, 0.340989, -0.967179, -0.984158, -0.180546, -0.445633, 0.060660, -0.849854, -0.321533, 0.267822, 0.087640, -0.007048, -0.012997, 0.999997, -0.000903, -0.002228, 0.000303, -169.287826, -74.640822, -96.392900, , , 0.000000, , , 
60813, , 8.955929, -0.746749, -1.199012, 0.386118, -1.175913, -0.830934, -0.236842, -0.507898, 0.045178, -0.845459, -0.323730, 0.265625, 0.089591, -0.007461, -0.011754, 0.999996, -0.001184, -0.002539, 0.000226, -169.519698, -74.350594, -96.293082, , , 0.000000, , , 
60814, , 9.217548, -0.828033, -1.160747, 0.463904, -1.318996, -0.590919, -0.228041, -0.522825, 0.038470, -0.845703, -0.321777, 0.269775, 0.092207, -0.008276, -0.011357, 0.999996, -0.001140, -0.002614, 0.000192, -169.716405, -74.093398, -96.202131, , , 0.000000, , , 
60815, , 9.107228, -0.689037, -1.311535, 0.319531, -1.202788, -0.670068, -0.205360, -0.528921, 0.043787, -0.843506, -0.321777, 0.273926, 0.091108, -0.006884, -0.012867, 0.999996, -0.001027, -0.002645, 0.000219, -169.929569, -73.791231, -96.102721, , , 0.000000, , , 
60816, , 8.954488, -0.573926, -1.238699, 0.215413, -1.280701, -0.848325, -0.232531, -0.570829, 0.048622, -0.843506, -0.325928, 0.276123, 0.089581, -0.005732, -0.012125, 0.999995, -0.001163, -0.002854, 0.000243, -170.103181, -73.511599, -96.036393, , , 0.000000, , , 
60817, , 9.049041, -0.705752, -0.912630, 0.369437, -1.666672, -0.851574, -0.248287, -0.628461, 0.041878, -0.843506, -0.321777, 0.282471, 0.090520, -0.007050, -0.008833, 0.999994, -0.001241, -0.003142, 0.000209, -170.365873, -73.153229, -95.910642, , , 0.000000, , , 
60818, , 9.190402, -0.829975, -0.759441, 0.500498, -1.897570, -0.764069, -0.213863, -0.662555, 0.048440, -0.837402, -0.323730, 0.288574, 0.091930, -0.008285, -0.007281, 0.999994, -0.001069, -0.003313, 0.000242, -170.551702, -72.828106, -95.824859, , , 0.000000, , , 
60819, , 9.413691, -0.637372, -0.801375, 0.299961, -1.997570, -0.561450, -0.161991, -0.702490, 0.046697, -0.839355, -0.321777, 0.292725, 0.094166, -0.006358, -0.007678, 0.999993, -0.000810, -0.003512, 0.000233, -170.764636, -72.427223, -95.698978, , , 0.000000, , , 
60820, , 9.327718, -0.135076, -0.920547, -0.205501, -1.944092, -0.644818, -0.237811, -0.750009, 0.038584, -0.831055, -0.328125, 0.301025, 0.093311, -0.001343, -0.008854, 0.999992, -0.001189, -0.003750, 0.000193, -170.983603, -72.054068, -95.580497, , , 0.000000, , , 
60821, , 9.068277, 0.124673, -0.872604, -0.449553, -1.993422, -0.933815, -0.451514, -0.802578, 0.027706, -0.829102, -0.323975, 0.303223, 0.090717, 0.001240, -0.008365, 0.999989, -0.002258, -0.004013, 0.000139, -171.404816, -71.597836, -95.409418, , , 0.000000, , , 
60822, , 8.883638, -0.031272, -0.753694, -0.274277, -2.105415, -1.153613, -0.647924, -0.867758, 0.020026, -0.826904, -0.328125, 0.305420, 0.088868, -0.000327, -0.007150, 0.999985, -0.003240, -0.004339, 0.000100, -171.926882, -71.158303, -95.216032, , , 0.000000, , , 
60823, , 9.237707, -0.252476, -0.662499, -0.051456, -2.375821, -0.857796, -0.692583, -0.926171, 0.010764, -0.824707, -0.334229, 0.313477, 0.092407, -0.002542, -0.006188, 0.999983, -0.003463, -0.004631, 0.000054, -172.509876, -70.632297, -95.018973, , , 0.000000, , , 
60824, , 9.952137, -0.149113, -0.606888, -0.163561, -2.744253, -0.227429, -0.719517, -0.930287, 0.005694, -0.822754, -0.332275, 0.315674, 0.099548, -0.001509, -0.005600, 0.999983, -0.003598, -0.004651, 0.000028, -173.086637, -70.168503, -94.818657, , , 0.000000, , , 
60825, , 10.678518, -0.065116, -0.631137, -0.261945, -3.059728, 0.434362, -0.819885, -0.881773, 0.015275, -0.824463, -0.338379, 0.317627, 0.106812, -0.000668, -0.005838, 0.999982, -0.004099, -0.004409, 0.000076, -173.688694, -69.666297, -94.677797, , , 0.000000, , , 
60826, , 10.882090, -0.091270, -0.886807, -0.243752, -2.960149, 0.694080, -0.805082, -0.752467, 0.050937, -0.822510, -0.340576, 0.325928, 0.108853, -0.000920, -0.008455, 0.999985, -0.004025, -0.003762, 0.000255, -174.176851, -69.316441, -94.628802, , , 0.000000, , , 
60827, , 10.429156, -0.044851, -1.339195, -0.287450, -2.446760, 0.409503, -0.662805, -0.565713, 0.099534, -0.816162, -0.344727, 0.325928, 0.104329, -0.000440, -0.013095, 0.999990, -0.003314, -0.002829, 0.000498, -174.488976, -68.989069, -94.701238, , , 0.000000, , , 
60828, , 9.886968, -0.094483, -1.844760, -0.230521, -1.820728, 0.076488, -0.624525, -0.509737, 0.127357, -0.818359, -0.342773, 0.325928, 0.098917, -0.000939, -0.018193, 0.999992, -0.003123, -0.002549, 0.000637, -174.730168, -68.775112, -94.809203, , , 0.000000, , , 
60829, , 9.863558, -0.412443, -2.231715, 0.085651, -1.506573, 0.195460, -0.768403, -0.577302, 0.107703, -0.818115, -0.344727, 0.330078, 0.098702, -0.004156, -0.022016, 0.999988, -0.003842, -0.002886, 0.000539, -175.086319, -68.441058, -94.899665, , , 0.000000, , , 
60830, , 10.201552, -0.799512, -2.496211, 0.470486, -1.435162, 0.611347, -0.727310, -0.616542, 0.064314, -0.818115, -0.348877, 0.330078, 0.102094, -0.008052, -0.024618, 0.999989, -0.003637, -0.003083, 0.000322, -175.475344, -68.176681, -94.912677, , , 0.000000, , , 
60831, , 10.831064, -0.377152, -2.124055, 0.037967, -2.077072, 1.033959, -0.642224, -0.597327, 0.038657, -0.807861, -0.344727, 0.334229, 0.108374, -0.003818, -0.020905, 0.999990, -0.003211, -0.002987, 0.000193, -175.850949, -67.834770, -94.904641, , , 0.000000, , , 
60832, , 11.587822, 0.144782, -1.915820, -0.498801, -2.589445, 1.633475, -0.697850, -0.511097, 0.029022, -0.811768, -0.351074, 0.336426, 0.115926, 0.001398, -0.018867, 0.999991, -0.003489, -0.002555, 0.000145, -176.250120, -67.631957, -94.882411, , , 0.000000, , , 
60833, , 12.628421, 0.300732, -1.642219, -0.680624, -3.286786, 2.475433, -0.825718, -0.419937, -0.011548, -0.809570, -0.355225, 0.330078, 0.126319, 0.002933, -0.016169, 0.999989, -0.004129, -0.002100, -0.000058, -176.773153, -67.393358, -94.828643, , , 0.000000, , , 
60834, , 12.892218, 0.290902, -0.892487, -0.675601, -4.102887, 2.426601, -1.013984, -0.321931, -0.086944, -0.805420, -0.359375, 0.329834, 0.128938, 0.002808, -0.008732, 0.999986, -0.005070, -0.001610, -0.000435, -177.502615, -67.311604, -94.654683, , , 0.000000, , , 
60835, , 12.479343, -0.132175, 0.344015, -0.262147, -5.135354, 1.564005, -1.181905, -0.246247, -0.157266, -0.811279, -0.367676, 0.331787, 0.124788, -0.001399, 0.003602, 0.999981, -0.005909, -0.001231, -0.000786, -178.405585, -67.175163, -94.410211, , , 0.000000, , , 
60836, , 12.062434, -1.012739, 1.199069, 0.609800, -5.820230, 0.851206, -1.219387, -0.256938, -0.229011, -0.809326, -0.367676, 0.327637, 0.120597, -0.010192, 0.012208, 0.999980, -0.006097, -0.001285, -0.001145, -179.444915, -67.141663, -94.032522, , , 0.000000, , , 
60837, , 12.315587, -1.443148, 0.991394, 1.062178, -5.790487, 1.145463, -0.973605, -0.205808, -0.304800, -0.802490, -0.384033, 0.327393, 0.123123, -0.014570, 0.010111, 0.999986, -0.004868, -0.001029, -0.001524, 179.584063, -67.025480, -93.584428, , , 0.000000, , , 
60838, , 12.626483, -0.863525, 0.735400, 0.530748, -5.638594, 1.529224, -0.899837, -0.077229, -0.387804, -0.804688, -0.384033, 0.319092, 0.126245, -0.008847, 0.007442, 0.999988, -0.004499, -0.000386, -0.001939, 178.526398, -67.100776, -92.982203, , , 0.000000, , , 
60839, , 12.510181, -0.728464, 0.453399, 0.465352, -5.338484, 1.524185, -1.014140, -0.016956, -0.453194, -0.798096, -0.392334, 0.316895, 0.125085, -0.007545, 0.004582, 0.999985, -0.005071, -0.000085, -0.002266, 177.331680, -67.083351, -92.316613, , , 0.000000, , , 
60840, , 12.628313, -0.965480, 0.375982, 0.766664, -5.315629, 1.663541, -0.926105, 0.023852, -0.501515, -0.799805, -0.406982, 0.314697, 0.126259, -0.009954, 0.003790, 0.999986, -0.004631, 0.000119, -0.002508, 176.088481, -67.217875, -91.525176, , , 0.000000, , , 
60841, , 13.228203, -1.184221, 0.485332, 1.032458, -5.666903, 2.164087, -0.808242, 0.186656, -0.545574, -0.795410, -0.413086, 0.306152, 0.132254, -0.012184, 0.004779, 0.999988, -0.004041, 0.000933, -0.002728, 174.860561, -67.301679, -90.696634, , , 0.000000, , , 
60842, , 13.973620, -1.619015, 1.223909, 1.468723, -6.618500, 2.573548, -0.662345, 0.432311, -0.617678, -0.797363, -0.415039, 0.302002, 0.139711, -0.016582, 0.011992, 0.999987, -0.003312, 0.002162, -0.003088, 173.498751, -67.652872, -89.650024, , , 0.000000, , , 
60843, , 14.950206, -2.229716, 2.652304, 2.017375, -8.301835, 2.935771, -0.447696, 0.747702, -0.695026, -0.795166, -0.421387, 0.291504, 0.149521, -0.022758, 0.026015, 0.999984, -0.002238, 0.003738, -0.003475, 172.138037, -68.030100, -88.458715, , , 0.000000, , , 
60844, , 15.511443, -2.792325, 3.430712, 2.621964, -9.129680, 3.223492, -0.028434, 1.203143, -0.746150, -0.792969, -0.425537, 0.289307, 0.155211, -0.028497, 0.033378, 0.999975, -0.000142, 0.006016, -0.003731, 170.744000, -68.809281, -86.949587, , , 0.000000, , , 
60845, , 15.797131, -2.332560, 4.067566, 2.248298, -9.582581, 3.402678, 0.225899, 1.806923, -0.761105, -0.796631, -0.435791, 0.270264, 0.158240, -0.023972, 0.039220, 0.999951, 0.001129, 0.009034, -0.003805, 169.258958, -69.755316, -85.224639, , , 0.000000, , , 
60846, , 15.850661, -1.789225, 4.066275, 1.886711, -9.215890, 3.695495, 0.000639, 2.599423, -0.761628, -0.804688, -0.441895, 0.247314, 0.158948, -0.018497, 0.038599, 0.999908, 0.000003, 0.012997, -0.003808, 167.124845, -71.292291, -82.901085, , , 0.000000, , , 
60847, , 14.813792, -1.600635, 3.134662, 1.924640, -7.600264, 3.238984, -0.042314, 3.350779, -0.746343, -0.808594, -0.449951, 0.226074, 0.148574, -0.016554, 0.028863, 0.999853, -0.000212, 0.016753, -0.003732, 164.334669, -73.050099, -79.997175, , , 0.000000, , , 
60848, , 13.539213, -0.487812, 2.167666, 1.022505, -5.720659, 2.615171, 0.245167, 3.842633, -0.642805, -0.812256, -0.456055, 0.190430, 0.135758, -0.005339, 0.019064, 0.999810, 0.001226, 0.019212, -0.003214, 160.754562, -75.227735, -76.079405, , , 0.000000, , , 
60849, , 12.897729, 0.312697, 0.944901, 0.447101, -3.832060, 2.533729, 0.459676, 4.076090, -0.501619, -0.812256, -0.454102, 0.163330, 0.129141, 0.002785, 0.006825, 0.999787, 0.002298, 0.020379, -0.002508, 156.424642, -77.300754, -71.353027, , , 0.000000, , , 
60850, , 12.907773, -0.298982, -1.080920, 1.344589, -1.343025, 3.002595, 0.805835, 4.228055, -0.276498, -0.818359, -0.456055, 0.132080, 0.128806, -0.003117, -0.013547, 0.999767, 0.004029, 0.021139, -0.001382, 150.526107, -79.569445, -64.780424, , , 0.000000, , , 
60851, , 13.266783, -1.622775, -3.541401, 2.908670, 1.513045, 3.618643, 1.604475, 4.320983, -0.003903, -0.830811, -0.453613, 0.109131, 0.131859, -0.015930, -0.038397, 0.999734, 0.008022, 0.021603, -0.000020, 143.229541, -81.648604, -56.455936, , , 0.000000, , , 
60852, , 14.419921, -1.728838, -5.290051, 3.121094, 3.803401, 4.838522, 2.279690, 4.312962, 0.238739, -0.824707, -0.447510, 0.082031, 0.143031, -0.016489, -0.056185, 0.999702, 0.011397, 0.021563, 0.001194, 131.436497, -83.706449, -43.149346, , , 0.000000, , , 
60853, , 16.090978, -0.743480, -5.288255, 2.116439, 4.392107, 6.423797, 1.922012, 4.128720, 0.425155, -0.837158, -0.443115, 0.061035, 0.159786, -0.006564, -0.056255, 0.999738, 0.009609, 0.020642, 0.002126, 113.164009, -85.197994, -23.689062, , , 0.000000, , , 
60854, , 16.877526, -0.443766, -4.264105, 1.700386, 4.072037, 7.031195, 0.935396, 3.958165, 0.503688, -0.845459, -0.436768, 0.027832, 0.167897, -0.003804, -0.045989, 0.999790, 0.004677, 0.019789, 0.002518, 83.425805, -85.868559, 6.791806, , , 0.000000, , , 
60855, , 16.864355, -0.495917, -3.249995, 1.630918, 3.717962, 6.881460, 0.616573, 3.828529, 0.479600, -0.843262, -0.440918, -0.003662, 0.167991, -0.004449, -0.035734, 0.999809, 0.003083, 0.019141, 0.002398, 55.493785, -85.337578, 35.155552, , , 0.000000, , , 
60856, , 17.241497, 0.997995, -2.334406, 0.050886, 3.491806, 7.260157, 0.637862, 3.836772, 0.496265, -0.841553, -0.426270, -0.030518, 0.171900, 0.010488, -0.026612, 0.999808, 0.003189, 0.019183, 0.002481, 35.814669, -83.899084, 55.359186, , , 0.000000, , , 
60857, , 17.194830, 1.368407, -1.833197, -0.424869, 3.627792, 7.143628, 0.724560, 3.887064, 0.445571, -0.837158, -0.430420, -0.055664, 0.171518, 0.014141, -0.021618, 0.999802, 0.003623, 0.019434, 0.002228, 25.212256, -82.098323, 66.456219, , , 0.000000, , , 
60858, , 16.009164, 1.557125, -1.525138, -0.795616, 3.812022, 5.866828, 0.670521, 3.886406, 0.518315, -0.845215, -0.428223, -0.086914, 0.159715, 0.016043, -0.018304, 0.999802, 0.003352, 0.019431, 0.002591, 18.289689, -80.046774, 73.965696, , , 0.000000, , , 
60859, , 15.425347, 1.042085, -1.523847, -0.438809, 4.310499, 5.105288, 0.492427, 3.863814, 0.658280, -0.837158, -0.424072, -0.118164, 0.153886, 0.010970, -0.018187, 0.999805, 0.002462, 0.019318, 0.003291, 13.567771, -78.016320, 79.060494, , , 0.000000, , , 
60860, , 14.285507, 0.258114, -1.864988, 0.131865, 5.010404, 3.695485, 0.616784, 3.971748, 0.725272, -0.833008, -0.417725, -0.147461, 0.142437, 0.003162, -0.021472, 0.999791, 0.003084, 0.019857, 0.003626, 10.103462, -75.790178, 83.044671, , , 0.000000, , , 
60861, , 12.901691, -0.396969, -1.960013, 0.589607, 5.299881, 2.103368, 1.000330, 3.997966, 0.750037, -0.830811, -0.415771, -0.176514, 0.128604, -0.003380, -0.022192, 0.999781, 0.005001, 0.019988, 0.003750, 7.826270, -73.590736, 85.997835, , , 0.000000, , , 
60862, , 11.209390, -0.323521, -1.967750, 0.330800, 5.268059, 0.274325, 1.263076, 3.872538, 0.743634, -0.822754, -0.407471, -0.199463, 0.111695, -0.002686, -0.021861, 0.999786, 0.006315, 0.019361, 0.003718, 6.355977, -71.379243, 88.366402, , , 0.000000, , , 
60863, , 10.142970, 0.558984, -1.626182, -0.667577, 4.883261, -0.783115, 1.572717, 3.590999, 0.749741, -0.818604, -0.401123, -0.222412, 0.101094, 0.006106, -0.018032, 0.999801, 0.007863, 0.017954, 0.003748, 5.468689, -69.373790, 90.263264, , , 0.000000, , , 
60864, , 8.702700, 1.469462, -1.605316, -1.700714, 4.533949, -2.261717, 1.580471, 3.381903, 0.692345, -0.810059, -0.411621, -0.235107, 0.086688, 0.015129, -0.017403, 0.999820, 0.007902, 0.016908, 0.003462, 4.936078, -67.442895, 91.907829, , , 0.000000, , , 
60865, , 7.494679, 1.480057, -2.293025, -1.887236, 4.886420, -3.798131, 1.639138, 3.218734, 0.619916, -0.799805, -0.405273, -0.253662, 0.074519, 0.015226, -0.024008, 0.999832, 0.008195, 0.016093, 0.003099, 4.706776, -65.632202, 93.179914, , , 0.000000, , , 
60866, , 6.319581, 1.453206, -2.131137, -1.914671, 4.387473, -4.947330, 1.692032, 2.985762, 0.533909, -0.795654, -0.407471, -0.272461, 0.062830, 0.014885, -0.022126, 0.999849, 0.008460, 0.014928, 0.002669, 4.811066, -63.957023, 94.229280, , , 0.000000, , , 
60867, , 5.523216, 1.072383, -1.882022, -1.555837, 3.969947, -5.687783, 1.510004, 2.706542, 0.449476, -0.793457, -0.403076, -0.289307, 0.054947, 0.010993, -0.019483, 0.999877, 0.007550, 0.013532, 0.002247, 4.912490, -62.431036, 95.083347, , , 0.000000, , , 
60868, , 4.738279, 0.669072, -1.581830, -1.143105, 3.485516, -6.356618, 1.420161, 2.437705, 0.354519, -0.781006, -0.407227, -0.303955, 0.047174, 0.006889, -0.016346, 0.999899, 0.007101, 0.012188, 0.001773, 5.179788, -61.061582, 95.795255, , , 0.000000, , , 
60869, , 3.901527, 0.682191, -1.489094, -1.147048, 3.054711, -7.118794, 1.399736, 2.184464, 0.255274, -0.778809, -0.411377, -0.310303, 0.038841, 0.006978, -0.015267, 0.999915, 0.006998, 0.010922, 0.001276, 5.523309, -59.826540, 96.320713, , , 0.000000, , , 
60870, , 2.974242, 0.760441, -1.706906, -1.254773, 2.788026, -8.083520, 1.326850, 1.934057, 0.160644, -0.770508, -0.413574, -0.312256, 0.029570, 0.007742, -0.017305, 0.999931, 0.006634, 0.009670, 0.000803, 6.010904, -58.742192, 96.734292, , , 0.000000, , , 
60871, , 2.140063, 0.617300, -2.020670, -1.160321, 2.656777, -9.013310, 1.261290, 1.648295, 0.104680, -0.760010, -0.415771, -0.322754, 0.021230, 0.006312, -0.020343, 0.999946, 0.006306, 0.008241, 0.000523, 6.475233, -57.807421, 97.036440, , , 0.000000, , , 
60872, , 1.780046, 0.673737, -2.140062, -1.251502, 2.544622, -9.411646, 1.335329, 1.333360, 0.014175, -0.755615, -0.421875, -0.326904, 0.017657, 0.006882, -0.021473, 0.999955, 0.006677, 0.006667, 0.000071, 7.159942, -57.080789, 97.254061, , , 0.000000, , , 
60873, , 1.607847, 1.302947, -2.237156, -1.900995, 2.371423, -9.588712, 1.423805, 1.049019, -0.121172, -0.755615, -0.419922, -0.326904, 0.015969, 0.013179, -0.022362, 0.999961, 0.007119, 0.005245, -0.000606, 7.964467, -56.473406, 97.266019, , , 0.000000, , , 
60874, , 1.417681, 2.166618, -2.412757, -2.795094, 2.170676, -9.782160, 1.432324, 0.805242, -0.231388, -0.753418, -0.426025, -0.324951, 0.014105, 0.021822, -0.024029, 0.999966, 0.007162, 0.004026, -0.001157, 8.929673, -56.016671, 97.199265, , , 0.000000, , , 
60875, , 1.069387, 2.905348, -2.381207, -3.496206, 1.732884, -9.980845, 1.336623, 0.568933, -0.259588, -0.742920, -0.432373, -0.329346, 0.010664, 0.029198, -0.023648, 0.999973, 0.006683, 0.002845, -0.001298, 9.837964, -55.668350, 97.025673, , , 0.000000, , , 
60876, , 0.824659, 3.422704, -2.153837, -3.932108, 1.241998, -9.985272, 1.156989, 0.262763, -0.229722, -0.740723, -0.436523, -0.318848, 0.008258, 0.034341, -0.021351, 0.999982, 0.005785, 0.001314, -0.001149, 10.676467, -55.501868, 96.892561, , , 0.000000, , , 
60877, , 0.925299, 3.832625, -1.511839, -4.157706, 0.656232, -9.475691, 0.904353, -0.047525, -0.191172, -0.740723, -0.438477, -0.316895, 0.009293, 0.038385, -0.014943, 0.999989, 0.004522, -0.000238, -0.000956, 11.363190, -55.505149, 96.686646, , , 0.000000, , , 
60878, , 1.484128, 4.086797, -0.450524, -4.126998, 0.049695, -8.372937, 0.492353, -0.328685, -0.135206, -0.738525, -0.442627, -0.312744, 0.014876, 0.040869, -0.004380, 0.999995, 0.002462, -0.001643, -0.000676, 11.838338, -55.667367, 96.501505, , , 0.000000, , , 
60879, , 2.550643, 3.536928, 0.329451, -3.433868, 0.178532, -7.110684, 0.076181, -0.573661, -0.051208, -0.742920, -0.436523, -0.306396, 0.025506, 0.035361, 0.003381, 0.999996, 0.000381, -0.002868, -0.000256, 12.029006, -55.980337, 96.322454, , , 0.000000, , , 
60880, , 3.547894, 2.233244, 1.284526, -1.963891, 0.330931, -5.906475, -0.182976, -0.763416, 0.054469, -0.749023, -0.436523, -0.302246, 0.035424, 0.022354, 0.012960, 0.999992, -0.000915, -0.003817, 0.000272, 12.044179, -56.399353, 96.209906, , , 0.000000, , , 
60881, , 4.547743, 0.913589, 3.046442, -0.247977, -0.180029, -4.271639, -0.570260, -1.037794, 0.181944, -0.755371, -0.430176, -0.291504, 0.045310, 0.009264, 0.030674, 0.999982, -0.002851, -0.005189, 0.000910, 11.753656, -57.000147, 96.165255, , , 0.000000, , , 
60882, , 6.616596, 0.015683, 4.860493, 0.999038, -0.340603, -1.670904, -1.001733, -1.317207, 0.151883, -0.757812, -0.424072, -0.299805, 0.065844, 0.000452, 0.049038, 0.999965, -0.005009, -0.006586, 0.000759, 11.311618, -57.741564, 96.032118, , , 0.000000, , , 
60883, , 8.607485, -0.578734, 7.115743, 2.047167, -1.072208, 1.128738, -1.103064, -1.106110, 0.268210, -0.764160, -0.417725, -0.291504, 0.085687, -0.005278, 0.071662, 0.999969, -0.005515, -0.005530, 0.001341, 10.636371, -58.390515, 96.081762, , , 0.000000, , , 
60884, , 9.064561, -0.230572, 10.348484, 2.488464, -3.694625, 3.205193, -1.018178, -0.868454, 0.281965, -0.764160, -0.413574, -0.291504, 0.090198, -0.001650, 0.103887, 0.999977, -0.005091, -0.004342, 0.001410, 9.963030, -58.889333, 96.207380, , , 0.000000, , , 
60885, , 10.420608, -0.067054, 12.832165, 2.806719, -5.233697, 5.614083, -0.916703, -0.899373, 0.231486, -0.768555, -0.409424, -0.291260, 0.103628, 0.000039, 0.128789, 0.999979, -0.004583, -0.004497, 0.001157, 9.369357, -59.417208, 96.285806, , , 0.000000, , , 
60886, , 12.366711, -1.015532, 14.226999, 3.890500, -5.339644, 7.871289, -0.596412, -0.936937, 0.133219, -0.774658, -0.411621, -0.285156, 0.123005, -0.009648, 0.142877, 0.999984, -0.002982, -0.004685, 0.000666, 9.066516, -59.931786, 96.266355, , , 0.000000, , , 
60887, , 13.598897, -1.404284, 14.423966, 4.252271, -4.961809, 8.955615, 0.281530, -0.833928, 0.046270, -0.780762, -0.415771, -0.270508, 0.135389, -0.014215, 0.144785, 0.999990, 0.001408, -0.004170, 0.000231, 9.321249, -60.405331, 96.157389, , , 0.000000, , , 
60888, , 13.763420, 0.287740, 12.715768, 2.268598, -3.983293, 8.358442, 0.691693, -0.731087, 0.030511, -0.774658, -0.415771, -0.270508, 0.137168, 0.002457, 0.127669, 0.999987, 0.003458, -0.003655, 0.000153, 9.821498, -60.785516, 96.067342, , , 0.000000, , , 
60889, , 12.961078, 0.749586, 9.801121, 1.174567, -2.155197, 6.267983, 0.076280, -0.656414, 0.063777, -0.782959, -0.415771, -0.258057, 0.129286, 0.007500, 0.098439, 0.999994, 0.000381, -0.003282, 0.000319, 9.922665, -61.159890, 96.000378, , , 0.000000, , , 
60890, , 11.424131, -0.492479, 7.601614, 1.871539, -0.810502, 3.765887, -0.383529, -0.492671, 0.171862, -0.782959, -0.413574, -0.253906, 0.114058, -0.004681, 0.076306, 0.999995, -0.001918, -0.002463, 0.000859, 9.619753, -61.414063, 96.127012, , , 0.000000, , , 
60891, , 9.580843, -1.526564, 6.363321, 2.624671, -0.438261, 1.480396, 0.179897, -0.284303, 0.280868, -0.785156, -0.411621, -0.245361, 0.095739, -0.015188, 0.063756, 0.999998, 0.000899, -0.001422, 0.001404, 9.486618, -61.598992, 96.394543, , , 0.000000, , , 
60892, , 8.043159, -1.519673, 5.138083, 2.386007, -0.136041, -0.448386, 1.040893, -0.133803, 0.386840, -0.791260, -0.415771, -0.237061, 0.080427, -0.015308, 0.051355, 0.999984, 0.005204, -0.000669, 0.001934, 9.701520, -61.672258, 96.857131, , , 0.000000, , , 
60893, , 6.537308, -1.141209, 2.874778, 1.508768, 0.971144, -2.806720, 1.681027, -0.104327, 0.563071, -0.797607, -0.415771, -0.232910, 0.065390, -0.011469, 0.028686, 0.999961, 0.008405, -0.000522, 0.002815, 10.099262, -61.784162, 97.497916, , , 0.000000, , , 
60894, , 6.075990, 0.938056, 1.513541, -0.838415, 1.301830, -3.673421, 2.468630, -0.180823, 0.784616, -0.797607, -0.415771, -0.220459, 0.060709, 0.009431, 0.015307, 0.999916, 0.012343, -0.000904, 0.003923, 10.716973, -61.929876, 98.426740, , , 0.000000, , , 
60895, , 8.616434, 3.485400, 0.529276, -3.747097, 2.422673, -1.642091, 2.414200, -0.671712, 1.077202, -0.805908, -0.415771, -0.197510, 0.085956, 0.035248, 0.006006, 0.999907, 0.012071, -0.003358, 0.005386, 11.096390, -62.422045, 99.560592, , , 0.000000, , , 
60896, , 12.415986, 4.249196, -0.762965, -5.238058, 4.763909, 1.262322, 0.179967, -1.790699, 1.252657, -0.816650, -0.403320, -0.182617, 0.123952, 0.043275, -0.006481, 0.999940, 0.000900, -0.008953, 0.006263, 10.193184, -63.530096, 100.714793, , , 0.000000, , , 
60897, , 17.593299, -1.151567, -3.382182, -1.528386, 10.720800, 4.505094, -0.928957, -2.429052, 1.117890, -0.829346, -0.401367, -0.163818, 0.176387, -0.010681, -0.031630, 0.999900, -0.004645, -0.012145, 0.005589, 8.834804, -65.006159, 101.630582, , , 0.000000, , , 
60898, , 22.149449, -2.537016, -0.500384, 0.374275, 10.238971, 9.993611, -0.109595, -2.119373, 0.267795, -0.829346, -0.399170, -0.153320, 0.221565, -0.025075, -0.002642, 0.999943, -0.000548, -0.010597, 0.001339, 8.861067, -66.214727, 101.572280, , , 0.000000, , , 
60899, , 26.172837, -1.150128, 5.755733, 0.889159, 5.698250, 16.382804, 0.171837, -0.827957, 0.234552, -0.835693, -0.395020, -0.149170, 0.261500, -0.011245, 0.058630, 0.999990, 0.000859, -0.004140, 0.001173, 8.830489, -66.701733, 101.711893, , , 0.000000, , , 
60900, , 17.376829, -0.955786, 4.455187, 1.003715, 3.344525, 7.808855, 2.404960, 1.004530, 0.017207, -0.827393, -0.401367, -0.145020, 0.173990, -0.010071, 0.043559, 0.999915, 0.012024, 0.005023, 0.000086, 9.972670, -66.132524, 101.991293, , , 0.000000, , , 
60901, , 5.426279, 2.185413, -0.337238, -2.602894, 1.625740, -4.821097, 5.121851, 1.156044, -0.235499, -0.826904, -0.417969, -0.130615, 0.054270, 0.021872, -0.003126, 0.999655, 0.025606, 0.005780, -0.001177, 12.916912, -65.454045, 101.979627, , , 0.000000, , , 
60902, , -3.114530, 6.877301, -7.126782, -8.933503, 1.713738, -14.816378, 2.950258, -0.531153, -0.349154, -0.826660, -0.422119, -0.116211, -0.030836, 0.069869, -0.070325, 0.999886, 0.014751, -0.002656, -0.001746, 15.200692, -65.701572, 101.346422, , , 0.000000, , , 
60903, , -7.569873, 10.595683, -8.317338, -12.505473, -0.645475, -18.864623, -0.844185, -2.340266, 0.503167, -0.835205, -0.415771, -0.097168, -0.074981, 0.105413, -0.084499, 0.999919, -0.004221, -0.011701, 0.002516, 14.883799, -67.068491, 101.163248, , , 0.000000, , , 
60904, , 0.467505, 0.605730, -5.826941, -3.007552, 4.785230, -11.422016, -2.293536, -3.821452, 2.020122, -0.846436, -0.391113, -0.080078, 0.005731, 0.005444, -0.058231, 0.999701, -0.011467, -0.019105, 0.010100, 12.070049, -69.472314, 102.802871, , , 0.000000, , , 
60905, , 9.934544, -10.494417, -1.350008, 8.307423, 8.496147, -1.482396, -4.317538, -3.340140, 2.073992, -0.859131, -0.380615, -0.069580, 0.100610, -0.104140, -0.009573, 0.999574, -0.021585, -0.016698, 0.010368, 7.200400, -71.555846, 105.342420, , , 0.000000, , , 
60906, , 16.151234, -15.822207, -3.442840, 12.088855, 13.638298, 4.003073, -1.151399, -2.865427, 0.718812, -0.867920, -0.368164, -0.042236, 0.162542, -0.157825, -0.031195, 0.999874, -0.005757, -0.014327, 0.003594, 5.868633, -73.248147, 106.057869, , , 0.000000, , , 
60907, , 15.960337, -8.922868, -3.133292, 5.809268, 10.434465, 4.383683, 2.924077, -2.228154, 0.587370, -0.861816, -0.370361, -0.010986, 0.160209, -0.088305, -0.030846, 0.999827, 0.014620, -0.011140, 0.002937, 6.890234, -74.552035, 106.737286, , , 0.000000, , , 
60908, , 14.584877, -1.120831, -2.999457, -1.257797, 6.687257, 3.478837, 1.993536, -1.771827, 0.200867, -0.864014, -0.366455, 0.007812, 0.146118, -0.010771, -0.028810, 0.999911, 0.009967, -0.008859, 0.001004, 8.062509, -75.602190, 106.695119, , , 0.000000, , , 
60909, , 10.067635, 1.786356, -0.122623, -2.371170, 1.694540, -0.011283, 0.301045, -1.447284, 0.180662, -0.866455, -0.358154, 0.018555, 0.100665, 0.017956, -0.000471, 0.999972, 0.001505, -0.007236, 0.000903, 8.313280, -76.435383, 106.613379, , , 0.000000, , , 
60910, , 7.612159, 1.630791, 1.015080, -1.556000, 0.072381, -2.118065, 0.103445, -1.537510, 0.292407, -0.870605, -0.358154, 0.037354, 0.076017, 0.016414, 0.010744, 0.999969, 0.000517, -0.007687, 0.001462, 8.163277, -77.364945, 106.811719, , , 0.000000, , , 
60911, , 6.683106, 3.577863, 2.268019, -2.701858, -2.175119, -2.701024, 0.635298, -1.806924, 0.405303, -0.875000, -0.351807, 0.049805, 0.066549, 0.035840, 0.023396, 0.999952, 0.003176, -0.009034, 0.002026, 8.158881, -78.420413, 107.187420, , , 0.000000, , , 
60912, , 6.880066, 6.437146, 3.399597, -4.768962, -4.528213, -2.257713, 0.330358, -2.344184, 0.633447, -0.871094, -0.347900, 0.081299, 0.068191, 0.064531, 0.034904, 0.999925, 0.001652, -0.011721, 0.003167, 7.392043, -79.832210, 108.149477, , , 0.000000, , , 
60913, , 7.927708, 5.496536, 1.460957, -4.771125, -2.421688, -1.654048, -0.943491, -2.748215, 0.733376, -0.877441, -0.341797, 0.095947, 0.078866, 0.055327, 0.015435, 0.999888, -0.004717, -0.013741, 0.003667, 5.407440, -81.441806, 109.611746, , , 0.000000, , , 
60914, , 8.473013, 2.409865, -0.504229, -2.799626, 0.510965, -1.461003, -1.257335, -2.860576, 0.746205, -0.873779, -0.331299, 0.113037, 0.084702, 0.024387, -0.003983, 0.999871, -0.006286, -0.014302, 0.003731, 2.367938, -83.134408, 111.949721, , , 0.000000, , , 
60915, , 9.112803, 1.001995, -1.261509, -1.810819, 1.620438, -0.883605, -0.776579, -2.745290, 0.662255, -0.871826, -0.327393, 0.125488, 0.091256, 0.010276, -0.011403, 0.999893, -0.003883, -0.013726, 0.003311, -1.487642, -84.709206, 115.378208, , , 0.000000, , , 
60916, , 8.954639, 1.271788, -0.820321, -1.824562, 0.867423, -0.958845, -1.009756, -2.521632, 0.610066, -0.869873, -0.323242, 0.146484, 0.089602, 0.012953, -0.007139, 0.999903, -0.005049, -0.012608, 0.003050, -7.910948, -86.151189, 121.235541, , , 0.000000, , , 
60917, , 8.570392, 0.947948, 0.082402, -1.122781, -0.056316, -1.263418, -2.185336, -2.448737, 0.575110, -0.876221, -0.325439, 0.161133, 0.085658, 0.009742, 0.001768, 0.999861, -0.010926, -0.012243, 0.002875, -21.057489, -87.433582, 133.146633, , , 0.000000, , , 
60918, , 8.427546, -0.645717, 0.013353, 0.367589, 0.387591, -1.377593, -3.139679, -2.463547, 0.530489, -0.870117, -0.323242, 0.171631, 0.084281, -0.006220, 0.001271, 0.999797, -0.015697, -0.012317, 0.002652, -54.122275, -88.429817, 164.425159, , , 0.000000, , , 
60919, , 8.458450, -2.309324, -0.518800, 1.798316, 1.215109, -1.302076, -3.257584, -2.410881, 0.461138, -0.872314, -0.321289, 0.175781, 0.084689, -0.022967, -0.003793, 0.999792, -0.016287, -0.012054, 0.002306, -108.172271, -88.380358, -143.374930, , , 0.000000, , , 
60920, , 8.606732, -3.064022, -0.270382, 2.656065, 0.938263, -1.118118, -2.753891, -2.274493, 0.407492, -0.861816, -0.327637, 0.186035, 0.086150, -0.030489, -0.001304, 0.999838, -0.013769, -0.011372, 0.002037, -137.318260, -87.441170, -115.797829, , , 0.000000, , , 
60921, , 9.081249, -2.750879, 0.480437, 2.609643, -0.161999, -0.678979, -2.490555, -2.189497, 0.394466, -0.868164, -0.323486, 0.196533, 0.090804, -0.027259, 0.006139, 0.999861, -0.012452, -0.010947, 0.001972, -149.216935, -86.299779, -105.312237, , , 0.000000, , , 
60922, , 9.916613, -2.714161, 0.482125, 2.586453, -0.498077, 0.136912, -2.316841, -2.021122, 0.380134, -0.865967, -0.321289, 0.202881, 0.099160, -0.026887, 0.006136, 0.999880, -0.011584, -0.010105, 0.001901, -155.369192, -85.150880, -100.483822, , , 0.000000, , , 
60923, , 10.807288, -2.229082, 0.414709, 2.099127, -0.872771, 0.993133, -1.830226, -1.712145, 0.389449, -0.861816, -0.323486, 0.207031, 0.108074, -0.022036, 0.005275, 0.999920, -0.009151, -0.008560, 0.001947, -158.380649, -84.164152, -98.513633, , , 0.000000, , , 
60924, , 10.962840, -1.131395, 0.672434, 1.080084, -1.590510, 1.060088, -1.388524, -1.361579, 0.434503, -0.862061, -0.321533, 0.213379, 0.109603, -0.011025, 0.007548, 0.999950, -0.006943, -0.006808, 0.002172, -159.674222, -83.325890, -98.023422, , , 0.000000, , , 
60925, , 10.488831, -0.171482, 1.005472, 0.194512, -2.216308, 0.488008, -1.314628, -1.220936, 0.492612, -0.861816, -0.325684, 0.221680, 0.104828, -0.001388, 0.010705, 0.999957, -0.006573, -0.006105, 0.002463, -160.251104, -82.574994, -98.202217, , , 0.000000, , , 
60926, , 10.139076, 0.166919, 0.755009, -0.218887, -2.126961, 0.128414, -1.405750, -1.124706, 0.527803, -0.860107, -0.319336, 0.226074, 0.101341, 0.001992, 0.008107, 0.999956, -0.007029, -0.005623, 0.002639, -160.606371, -81.849649, -98.665005, , , 0.000000, , , 
60927, , 9.262943, 0.352168, 0.545624, -0.461414, -1.941595, -0.744049, -1.471768, -1.019341, 0.535681, -0.864502, -0.311035, 0.226074, 0.092590, 0.003812, 0.005901, 0.999956, -0.007359, -0.005097, 0.002678, -160.824889, -81.199969, -99.297756, , , 0.000000, , , 
60928, , 8.402818, 0.350771, 0.447109, -0.492469, -1.809490, -1.602161, -1.601703, -1.060199, 0.488597, -0.860107, -0.319336, 0.228027, 0.083994, 0.003751, 0.004887, 0.999951, -0.008008, -0.005301, 0.002443, -161.356371, -80.520783, -99.695590, , , 0.000000, , , 
60929, , 8.001181, -0.257817, 0.316695, 0.073918, -1.621559, -1.967323, -1.832181, -1.239923, 0.345711, -0.857910, -0.319336, 0.236328, 0.079994, -0.002408, 0.003686, 0.999937, -0.009161, -0.006199, 0.001729, -162.608817, -79.786815, -99.491018, , , 0.000000, , , 
60930, , 8.348251, -1.296350, 0.484977, 1.102870, -1.834424, -1.625759, -1.916608, -1.425224, 0.221188, -0.853760, -0.323486, 0.238525, 0.083459, -0.012820, 0.005568, 0.999928, -0.009583, -0.007126, 0.001106, -164.336521, -78.958197, -98.854530, , , 0.000000, , , 
60931, , 8.941127, -1.631281, 0.459827, 1.409528, -2.033987, -1.055392, -1.831886, -1.457347, 0.142026, -0.855713, -0.329834, 0.244629, 0.089385, -0.016202, 0.005398, 0.999931, -0.009159, -0.007287, 0.000710, -166.069943, -78.132776, -98.157978, , , 0.000000, , , 
60932, , 9.047721, -1.090282, -0.458178, 0.778697, -1.363785, -0.824257, -1.565028, -1.407116, 0.099179, -0.849365, -0.329834, 0.257080, 0.090511, -0.010890, -0.003860, 0.999945, -0.007825, -0.007035, 0.000496, -167.584047, -77.328769, -97.527544, , , 0.000000, , , 
60933, , 9.119009, 0.273409, -1.490807, -0.654542, -0.618030, -0.612589, -1.218645, -1.423178, 0.058761, -0.841064, -0.332031, 0.261230, 0.091292, 0.002673, -0.014275, 0.999956, -0.006093, -0.007116, 0.000294, -168.874575, -76.526103, -96.920670, , , 0.000000, , , 
60934, , 9.391428, 1.687742, -1.581600, -2.054084, -0.810887, -0.396165, -1.219700, -1.427896, 0.014824, -0.843018, -0.340332, 0.273682, 0.094023, 0.016790, -0.015248, 0.999956, -0.006098, -0.007139, 0.000074, -170.164796, -75.713212, -96.311267, , , 0.000000, , , 
60935, , 10.313233, 1.511991, -0.028128, -1.785872, -2.643834, 0.110485, -1.777848, -1.391735, -0.005753, -0.828613, -0.338379, 0.269531, 0.103132, 0.015118, 0.000302, 0.999936, -0.008889, -0.006959, -0.000029, -171.692179, -74.928602, -95.786545, , , 0.000000, , , 
60936, , 11.831560, -1.541600, 1.432428, 1.287338, -4.470092, 1.267582, -2.303698, -1.239969, -0.031371, -0.832275, -0.350830, 0.271484, 0.118221, -0.015263, 0.015234, 0.999914, -0.011518, -0.006200, -0.000157, -173.441068, -74.223241, -95.339719, , , 0.000000, , , 
60937, , 12.862872, -5.822526, 1.438319, 5.517946, -4.876260, 2.319664, -2.039402, -0.861863, -0.020739, -0.832275, -0.354980, 0.277832, 0.128557, -0.058084, 0.015530, 0.999939, -0.010197, -0.004309, -0.000104, -174.841727, -73.735310, -95.099359, , , 0.000000, , , 
60938, , 14.286809, -6.895508, 1.265999, 6.538531, -5.296758, 3.694840, -1.427647, -0.487335, -0.045510, -0.829834, -0.361084, 0.273438, 0.142820, -0.068893, 0.013500, 0.999972, -0.007138, -0.002437, -0.000228, -175.839085, -73.462961, -94.904518, , , 0.000000, , , 
60939, , 14.694061, -5.809965, 0.725823, 5.439944, -5.004827, 4.171438, -1.270027, -0.199951, -0.022843, -0.832031, -0.361084, 0.271240, 0.146926, -0.058068, 0.007774, 0.999979, -0.006350, -0.001000, -0.000114, -176.650947, -73.351449, -94.817861, , , 0.000000, , , 
60940, , 14.406752, -4.188972, 0.145806, 3.832658, -4.382993, 4.015663, -0.765218, -0.001188, 0.033316, -0.827881, -0.363037, 0.269287, 0.144074, -0.041860, 0.001619, 0.999993, -0.003826, -0.000006, 0.000167, -177.012094, -73.358770, -94.883840, , , 0.000000, , , 
60941, , 13.947760, -1.143063, 0.908906, 0.769716, -4.881741, 3.311673, -0.239145, 0.154644, 0.068687, -0.832031, -0.363037, 0.262939, 0.139488, -0.011372, 0.008995, 0.999999, -0.001196, 0.000773, 0.000343, -177.017019, -73.447119, -95.022873, , , 0.000000, , , 
60942, , 13.229468, 1.255778, 2.793534, -1.681738, -6.363333, 2.064991, -0.329291, 0.267032, 0.051233, -0.832031, -0.363037, 0.258789, 0.132329, 0.012637, 0.027738, 0.999998, -0.001646, 0.001335, 0.000256, -177.053622, -73.612471, -95.161749, , , 0.000000, , , 
60943, , 13.372742, 1.750434, 4.233839, -2.245928, -7.715834, 1.816626, -0.653732, 0.416286, -0.049771, -0.833984, -0.365234, 0.252441, 0.133819, 0.017609, 0.042002, 0.999992, -0.003269, 0.002081, -0.000249, -177.502528, -73.853994, -95.085502, , , 0.000000, , , 
60944, , 15.195391, 1.070257, 4.850481, -1.638626, -8.753584, 3.463633, -0.821536, 0.785918, -0.299478, -0.829590, -0.371338, 0.246094, 0.152159, 0.010672, 0.047863, 0.999983, -0.004108, 0.003930, -0.001497, -178.497197, -74.334262, -94.513732, , , 0.000000, , , 
60945, , 16.370863, 0.055294, 4.905555, -0.616080, -9.019229, 4.690467, -0.886347, 1.424784, -0.569961, -0.835449, -0.377441, 0.227295, 0.164054, 0.000300, 0.047886, 0.999961, -0.004432, 0.007124, -0.002850, 179.815231, -75.156164, -93.292154, , , 0.000000, , , 
60946, , 15.781023, -0.498597, 4.873541, 0.041728, -8.610837, 4.289828, -0.645157, 2.194885, -0.812973, -0.833252, -0.381592, 0.208252, 0.158311, -0.005475, 0.047017, 0.999926, -0.003226, 0.010974, -0.004065, 177.497918, -76.435352, -91.245701, , , 0.000000, , , 
60947, , 14.715351, 0.381768, 4.813183, -0.689090, -7.902134, 3.488298, -0.354513, 2.974366, -0.990491, -0.839111, -0.391846, 0.180908, 0.147864, 0.003169, 0.045930, 0.999876, -0.001772, 0.014871, -0.004952, 174.224605, -78.096246, -88.099654, , , 0.000000, , , 
60948, , 13.830456, 1.483068, 4.590143, -1.595264, -7.014150, 2.945953, -0.145229, 3.481285, -1.229412, -0.840576, -0.408203, 0.149414, 0.139163, 0.014009, 0.043474, 0.999829, -0.000726, 0.017405, -0.006147, 169.034140, -80.010672, -82.851899, , , 0.000000, , , 
60949, , 14.500814, 1.516136, 3.238464, -1.296409, -5.276967, 4.097413, -0.641896, 4.488288, -1.511853, -0.837891, -0.424561, 0.092773, 0.145795, 0.014158, 0.029072, 0.999714, -0.003209, 0.022439, -0.007559, 158.711687, -82.249636, -72.780492, , , 0.000000, , , 
60950, , 15.135818, 2.449240, -1.052841, -1.560498, -0.334978, 5.470891, -2.742721, 4.971978, -1.995759, -0.837402, -0.434814, 0.057129, 0.151262, 0.022801, -0.014610, 0.999547, -0.013712, 0.024856, -0.009977, 135.832287, -84.108616, -51.278645, , , 0.000000, , , 
60951, , 14.423059, -3.529661, -3.321871, 4.782675, 2.226239, 4.457218, 1.794618, 5.181966, -0.378604, -0.839111, -0.440918, 0.023438, 0.143233, -0.035246, -0.037255, 0.999622, 0.008972, 0.025907, -0.001893, 107.357491, -85.523590, -21.662844, , , 0.000000, , , 
60952, , 13.536314, -4.377860, -5.976848, 5.684906, 5.630458, 3.379989, 2.838741, 4.445583, 0.410001, -0.843262, -0.438965, 0.002686, 0.134069, -0.042620, -0.063369, 0.999650, 0.014192, 0.022225, 0.002050, 74.264272, -85.815642, 13.198276, , , 0.000000, , , 
60953, , 18.423010, -5.829246, -6.583896, 7.306164, 7.071121, 7.886966, 2.670594, 4.039484, 0.183946, -0.834961, -0.436768, -0.018066, 0.182893, -0.057205, -0.070311, 0.999706, 0.013352, 0.020195, 0.000920, 50.050590, -84.797511, 39.023883, , , 0.000000, , , 
60954, , 20.392782, -4.114876, -5.086488, 5.493877, 6.666425, 9.782162, 3.158880, 4.196854, 0.233455, -0.838867, -0.438721, -0.039062, 0.202839, -0.040056, -0.055768, 0.999654, 0.015793, 0.020982, 0.001167, 35.278157, -83.083544, 55.737832, , , 0.000000, , , 
60955, , 20.737346, -1.339862, -3.940025, 2.576947, 6.460450, 10.159807, 2.228456, 4.405811, 0.183621, -0.836670, -0.438721, -0.070312, 0.206448, -0.012735, -0.044100, 0.999695, 0.011141, 0.022027, 0.000918, 26.648030, -80.961137, 65.738451, , , 0.000000, , , 
60956, , 19.929931, 0.259123, -2.675144, 0.843581, 5.918707, 9.386744, 0.685483, 4.385086, 0.191736, -0.830566, -0.434570, -0.103760, 0.198646, 0.002884, -0.031102, 0.999753, 0.003427, 0.021924, 0.000959, 20.762441, -78.681052, 72.148917, , , 0.000000, , , 
60957, , 18.894909, -0.584769, -1.226455, 1.604793, 5.154153, 8.344041, 0.025255, 4.334821, 0.218048, -0.826172, -0.436523, -0.143555, 0.188630, -0.005640, -0.016356, 0.999765, 0.000126, 0.021672, 0.001090, 16.654705, -76.363836, 76.368736, , , 0.000000, , , 
60958, , 17.127155, -4.450519, -1.352408, 5.250295, 5.788006, 6.120481, -0.185534, 4.226741, 0.347703, -0.820068, -0.430176, -0.174805, 0.171012, -0.044222, -0.017099, 0.999775, -0.000928, 0.021132, 0.001738, 13.388764, -74.054110, 79.660012, , , 0.000000, , , 
60959, , 15.577868, -4.109192, -2.016387, 4.665142, 6.658895, 4.239852, 1.653002, 4.102145, 0.484368, -0.815674, -0.438477, -0.197754, 0.155415, -0.040529, -0.023691, 0.999753, 0.008264, 0.020509, 0.002422, 11.794848, -71.817272, 82.316452, , , 0.000000, , , 
60960, , 14.555530, 1.835964, -0.259927, -1.320376, 4.875224, 3.962909, 3.237669, 3.989599, 0.630527, -0.809326, -0.436279, -0.214600, 0.145410, 0.018888, -0.005198, 0.999665, 0.016187, 0.019946, 0.003152, 11.303484, -69.639017, 84.825495, , , 0.000000, , , 
60961, , 13.497655, 5.384214, -1.593084, -5.191026, 5.821506, 2.551028, 2.128415, 3.896161, 0.677795, -0.807373, -0.434326, -0.241699, 0.134456, 0.054482, -0.017976, 0.999748, 0.010641, 0.019479, 0.003389, 10.484102, -67.517115, 87.014222, , , 0.000000, , , 
60962, , 11.101304, 3.004929, -3.979733, -3.391321, 7.670059, -0.994566, 1.360470, 3.864372, 0.743547, -0.796875, -0.434326, -0.260498, 0.110106, 0.030739, -0.041723, 0.999783, 0.006802, 0.019320, 0.003717, 9.409671, -65.406181, 89.055726, , , 0.000000, , , 
60963, , 8.802702, 0.541457, -3.635996, -1.093799, 6.964779, -3.387260, 1.431489, 3.614409, 0.652926, -0.788574, -0.434326, -0.285400, 0.087332, 0.005968, -0.037901, 0.999806, 0.007157, 0.018071, 0.003264, 8.781782, -63.417552, 90.659864, , , 0.000000, , , 
60964, , 7.126726, 0.998739, -2.215766, -1.439316, 5.066351, -4.431905, 1.556076, 3.283222, 0.565480, -0.780273, -0.430176, -0.297852, 0.070863, 0.010366, -0.023244, 0.999831, 0.007780, 0.016415, 0.002827, 8.523775, -61.611159, 91.974515, , , 0.000000, , , 
60965, , 5.375546, 0.578952, -1.504243, -0.959442, 3.810582, -5.806311, 0.910827, 2.963368, 0.516504, -0.775879, -0.434326, -0.321045, 0.053510, 0.005999, -0.015810, 0.999877, 0.004554, 0.014816, 0.002582, 8.089144, -59.971094, 93.069011, , , 0.000000, , , 
60966, , 4.004012, -0.535089, -1.061386, 0.197995, 3.031055, -6.946087, 0.602263, 2.620517, 0.448265, -0.763428, -0.432129, -0.339844, 0.039908, -0.005228, -0.011153, 0.999907, 0.003011, 0.013102, 0.002241, 7.671414, -58.533298, 93.972743, , , 0.000000, , , 
60967, , 3.081958, -0.835561, -0.819876, 0.535302, 2.466400, -7.691689, 0.734712, 2.225237, 0.373280, -0.761475, -0.432129, -0.343994, 0.030741, -0.008267, -0.008572, 0.999930, 0.003673, 0.011126, 0.001866, 7.491327, -57.295065, 94.680854, , , 0.000000, , , 
60968, , 2.434245, -0.132929, -0.419505, -0.070003, 1.695601, -8.012952, 0.807209, 1.832922, 0.299480, -0.759277, -0.436279, -0.356445, 0.024305, -0.001275, -0.004423, 0.999949, 0.004036, 0.009164, 0.001497, 7.505037, -56.291831, 95.236341, , , 0.000000, , , 
60969, , 1.720855, 0.493456, -0.214560, -0.618183, 1.033296, -8.470679, 0.717821, 1.408034, 0.224079, -0.750977, -0.430176, -0.362549, 0.017187, 0.004962, -0.002249, 0.999968, 0.003589, 0.007040, 0.001120, 7.577019, -55.506319, 95.644838, , , 0.000000, , , 
60970, , 1.348962, 0.851160, -0.317007, -0.975835, 0.838486, -8.818029, 0.898880, 0.989072, 0.176969, -0.748779, -0.434326, -0.364746, 0.013466, 0.008538, -0.003198, 0.999977, 0.004494, 0.004945, 0.000885, 7.856839, -54.983265, 95.951952, , , 0.000000, , , 
60971, , 0.867709, 1.018424, -1.036592, -1.277671, 1.091663, -9.611617, 1.366862, 0.629650, 0.141090, -0.744873, -0.434326, -0.356445, 0.008637, 0.010261, -0.010323, 0.999971, 0.006834, 0.003148, 0.000705, 8.458826, -54.635028, 96.172427, , , 0.000000, , , 
60972, , 0.375406, 1.398850, -2.044075, -1.873095, 1.490787, -10.550821, 1.852471, 0.300954, 0.125141, -0.744385, -0.444580, -0.352539, 0.003715, 0.014179, -0.020316, 0.999956, 0.009262, 0.001505, 0.000626, 9.401382, -54.508501, 96.339358, , , 0.000000, , , 
60973, , -0.086775, 2.007613, -3.026274, -2.718856, 1.801885, -11.411720, 2.145632, 0.018066, 0.083486, -0.744385, -0.450928, -0.346191, -0.000879, 0.020399, -0.030045, 0.999942, 0.010728, 0.000090, 0.000417, 10.567015, -54.503930, 96.416488, , , 0.000000, , , 
60974, , 0.209936, 2.629743, -3.788107, -3.598238, 2.348495, -11.499671, 1.994622, -0.217684, 0.062580, -0.746338, -0.455078, -0.327393, 0.002132, 0.026674, -0.037614, 0.999950, 0.009973, -0.001088, 0.000313, 11.724054, -54.663467, 96.426203, , , 0.000000, , , 
60975, , 0.473642, 2.315195, -4.486393, -3.575228, 3.076619, -11.673819, 1.530960, -0.391899, 0.081715, -0.748535, -0.455078, -0.319092, 0.004815, 0.023496, -0.044676, 0.999969, 0.007655, -0.001959, 0.000409, 12.608361, -54.890049, 96.416429, , , 0.000000, , , 
60976, , 0.882275, 1.308412, -5.111802, -2.895738, 4.050904, -11.768509, 1.318900, -0.617014, 0.082521, -0.750488, -0.457275, -0.308838, 0.008975, 0.013424, -0.051003, 0.999973, 0.006594, -0.003085, 0.000413, 13.436134, -55.290778, 96.350169, , , 0.000000, , , 
60977, , 1.458365, 1.303527, -4.652971, -2.835315, 4.006713, -10.988637, 1.283427, -0.915817, 0.041997, -0.758789, -0.457031, -0.300293, 0.014793, 0.013336, -0.046377, 0.999969, 0.006417, -0.004579, 0.000210, 14.326055, -55.803132, 96.161778, , , 0.000000, , , 
60978, , 2.412667, 2.104320, -3.221037, -3.203049, 3.168748, -9.244079, 0.909776, -1.240823, 0.051392, -0.754395, -0.465576, -0.290039, 0.024320, 0.021195, -0.031964, 0.999970, 0.004549, -0.006204, 0.000257, 15.070188, -56.547675, 95.886807, , , 0.000000, , , 
60979, , 3.676053, 2.009975, -1.604086, -2.634190, 2.607521, -7.285242, 0.110180, -1.586104, 0.111844, -0.762939, -0.461426, -0.269043, 0.036875, 0.020129, -0.015738, 0.999968, 0.000551, -0.007930, 0.000559, 15.411302, -57.438528, 95.554433, , , 0.000000, , , 
60980, , 4.636672, 1.572849, -0.842803, -1.993701, 2.612979, -6.087129, -0.203188, -1.889240, 0.153792, -0.767090, -0.459229, -0.262939, 0.046432, 0.015756, -0.008006, 0.999955, -0.001016, -0.009446, 0.000769, 15.636723, -58.545996, 95.153795, , , 0.000000, , , 
60981, , 6.279207, 2.332975, 1.008799, -2.122783, 1.661449, -3.598139, -0.189685, -2.252894, 0.255244, -0.777832, -0.455078, -0.237793, 0.062643, 0.023420, 0.010772, 0.999935, -0.000948, -0.011264, 0.001276, 15.885897, -59.825241, 94.736298, , , 0.000000, , , 
60982, , 8.052318, 3.012814, 3.181750, -2.065123, 0.405494, -0.890388, -0.536498, -2.524734, 0.380724, -0.784180, -0.450928, -0.229248, 0.080056, 0.030368, 0.032749, 0.999915, -0.002682, -0.012623, 0.001904, 15.912600, -61.324258, 94.345623, , , 0.000000, , , 
60983, , 9.799681, 2.794547, 6.045736, -0.963170, -1.298022, 1.925015, -1.136971, -2.609363, 0.551336, -0.788574, -0.440674, -0.212402, 0.097120, 0.028562, 0.061567, 0.999895, -0.005685, -0.013046, 0.002757, 15.456819, -62.846374, 94.123381, , , 0.000000, , , 
60984, , 12.839216, 1.080539, 10.410535, 1.894268, -3.416822, 6.284274, -1.721342, -2.334615, 0.590424, -0.803467, -0.432373, -0.199707, 0.127132, 0.012086, 0.105494, 0.999890, -0.008606, -0.011673, 0.002952, 14.499374, -64.266026, 94.071983, , , 0.000000, , , 
60985, , 16.753725, -2.836158, 16.252946, 7.193985, -5.964528, 11.763809, -0.659170, -1.592017, 0.571597, -0.803467, -0.428223, -0.193604, 0.166315, -0.027346, 0.163948, 0.999959, -0.003296, -0.007960, 0.002858, 13.931365, -65.228200, 94.281612, , , 0.000000, , , 
60986, , 20.173270, -1.863131, 20.148427, 7.383921, -8.483686, 16.453069, 1.250726, -0.927539, 0.642502, -0.814209, -0.421875, -0.180908, 0.200857, -0.019249, 0.202298, 0.999965, 0.006254, -0.004638, 0.003212, 14.119576, -65.870391, 94.839530, , , 0.000000, , , 
60987, , 19.400508, 1.587097, 19.180033, 3.933803, -9.166134, 15.628965, 0.485938, -0.489155, 0.543606, -0.812012, -0.421875, -0.180908, 0.193492, 0.015931, 0.192313, 0.999990, 0.002430, -0.002446, 0.002718, 13.878738, -66.215308, 95.406928, , , 0.000000, , , 
60988, , 16.337823, 0.330992, 15.800466, 4.045610, -7.222922, 11.356783, -0.971128, -0.178271, 0.495426, -0.816406, -0.413574, -0.180664, 0.163227, 0.004482, 0.158130, 0.999985, -0.004856, -0.000891, 0.002477, 12.696034, -66.399293, 96.062472, , , 0.000000, , , 
60989, , 12.820981, -1.266182, 10.787588, 3.943290, -3.882302, 6.053244, -1.204513, 0.044718, 0.518752, -0.814453, -0.409424, -0.188965, 0.128265, -0.011679, 0.107920, 0.999978, -0.006023, 0.000224, 0.002594, 11.336225, -66.433939, 96.792315, , , 0.000000, , , 
60990, , 9.559281, -1.820348, 6.980172, 3.331505, -1.757337, 1.555170, -0.936366, 0.044001, 0.445590, -0.814697, -0.403320, -0.190918, 0.095648, -0.017663, 0.069864, 0.999987, -0.004682, 0.000220, 0.002228, 10.165457, -66.464145, 97.462001, , , 0.000000, , , 
60991, , 7.736798, -2.990164, 3.760899, 3.543047, 0.644322, -1.447575, 0.058466, -0.036532, 0.300613, -0.818848, -0.401367, -0.184814, 0.077406, -0.029796, 0.037614, 0.999999, 0.000292, -0.000183, 0.001503, 9.825952, -66.512659, 97.867875, , , 0.000000, , , 
60992, , 5.859743, -3.053393, 1.385455, 2.995258, 2.013323, -4.107073, 1.498167, 0.063085, 0.225136, -0.820801, -0.403320, -0.180664, 0.058636, -0.030570, 0.013607, 0.999971, 0.007491, 0.000315, 0.001126, 10.338858, -66.509163, 98.231413, , , 0.000000, , , 
60993, , 4.232192, -1.104472, 0.784336, 1.047144, 1.338869, -5.706918, 2.385936, 0.047392, 0.278723, -0.820801, -0.407471, -0.166016, 0.042339, -0.011078, 0.007701, 0.999928, 0.011929, 0.000237, 0.001394, 11.341656, -66.510512, 98.627651, , , 0.000000, , , 
60994, , 5.268127, 0.959099, 1.362146, -0.761709, 0.571047, -4.370077, 2.234267, -0.420095, 0.498046, -0.831299, -0.401367, -0.153320, 0.052629, 0.009568, 0.013839, 0.999932, 0.011171, -0.002100, 0.002490, 12.058507, -66.820457, 99.238313, , , 0.000000, , , 
60995, , 9.838183, 0.411762, 1.139360, -0.621763, 2.639926, -0.278534, 1.026812, -1.148626, 0.902950, -0.829590, -0.395020, -0.138672, 0.098294, 0.004501, 0.011981, 0.999960, 0.005134, -0.005743, 0.004515, 11.774694, -67.569199, 100.183489, , , 0.000000, , , 
60996, , 15.280264, -2.912077, -1.102499, 1.240724, 7.600583, 3.747083, 0.717820, -1.611814, 0.995903, -0.835938, -0.393066, -0.111572, 0.153028, -0.028322, -0.009895, 0.999949, 0.003589, -0.008059, 0.004979, 11.193272, -68.615652, 101.240482, , , 0.000000, , , 
60997, , 22.075535, -3.849465, -5.221482, 0.037181, 13.606747, 8.741234, 2.887233, -2.264459, 0.366832, -0.842041, -0.399414, -0.078125, 0.221401, -0.037354, -0.050255, 0.999830, 0.014435, -0.011322, 0.001834, 13.033514, -69.926312, 101.040820, , , 0.000000, , , 
60998, , 30.486230, 3.004863, -7.000397, -7.411389, 14.662288, 16.972753, 3.382751, -2.655896, -0.360405, -0.840088, -0.401611, -0.044678, 0.305806, 0.030631, -0.065432, 0.999767, 0.016912, -0.013278, -0.001802, 16.662296, -71.391009, 99.271145, , , 0.000000, , , 
60999, , 31.864825, 8.845870, 0.530302, -9.284877, 5.775297, 21.401554, 1.154574, -0.423381, -0.340238, -0.837891, -0.403564, -0.049072, 0.318785, 0.087881, 0.006486, 0.999980, 0.005773, -0.002117, -0.001701, 18.105859, -71.562074, 98.445582, , , 0.000000, , , 
61000, , 16.911891, 2.248601, 6.150817, -0.153347, -0.722345, 8.307583, 0.472334, 2.083589, -0.097535, -0.829346, -0.407715, -0.069824, 0.169759, 0.022261, 0.059795, 0.999943, 0.002362, 0.010418, -0.000488, 17.478353, -70.447605, 99.397490, , , 0.000000, , , 
61001, , 4.226291, -3.300067, 0.306447, 2.801330, 2.670692, -6.089591, 3.599651, 2.585882, 0.476848, -0.839600, -0.411865, -0.061768, 0.042371, -0.032941, 0.001924, 0.999752, 0.017997, 0.012928, 0.002384, 17.629771, -69.115142, 101.433207, , , 0.000000, , , 
61002, , -5.798526, 0.682843, -6.684245, -3.478219, 2.958653, -17.422272, 5.434783, 0.992951, 0.363010, -0.840088, -0.403564, -0.046875, -0.058330, 0.008530, -0.066337, 0.999617, 0.027170, 0.004964, 0.001815, 19.778068, -68.668076, 102.472391, , , 0.000000, , , 
61003, , -16.184802, 16.811199, -12.433698, -19.543471, -4.496445, -27.046104, 0.455124, -1.744165, 0.459777, -0.842041, -0.403564, -0.028076, -0.161144, 0.168025, -0.125362, 0.999957, 0.002276, -0.008721, 0.002299, 20.297603, -69.694915, 102.194839, , , 0.000000, , , 
61004, , -5.535981, 6.113683, -7.745493, -8.812055, 1.386695, -16.770134, -3.393414, -4.782537, 2.208278, -0.859619, -0.378662, 0.003662, -0.054131, 0.059194, -0.079775, 0.999509, -0.016964, -0.023909, 0.011040, 17.466348, -72.737197, 103.140000, , , 0.000000, , , 
61005, , 6.196551, -7.519039, -3.527229, 4.462732, 8.211244, -5.340850, -4.284954, -4.342659, 1.951182, -0.862061, -0.368408, 0.014160, 0.063423, -0.075290, -0.032293, 0.999487, -0.021421, -0.021710, 0.009754, 13.581531, -75.431918, 104.625147, , , 0.000000, , , 
61006, , 18.077313, -11.752286, -1.882829, 8.565642, 11.024218, 6.723872, -3.460224, -3.414796, 0.626745, -0.866455, -0.362305, 0.037354, 0.181404, -0.117222, -0.013704, 0.999700, -0.017299, -0.017072, 0.003133, 11.947004, -77.461130, 104.268022, , , 0.000000, , , 
61007, , 16.378618, -6.658490, -2.108106, 4.209227, 8.081958, 5.484283, 1.521180, -2.133584, 0.215836, -0.868408, -0.364502, 0.060303, 0.164074, -0.066254, -0.019836, 0.999914, 0.007606, -0.010668, 0.001079, 13.542517, -78.679133, 103.527538, , , 0.000000, , , 
61008, , 16.875372, 1.040899, -3.326170, -3.117455, 5.509844, 6.213506, 0.711084, -1.891647, -0.274271, -0.860107, -0.366455, 0.068604, 0.169072, 0.010292, -0.031627, 0.999948, 0.003555, -0.009458, -0.001371, 16.200994, -79.726043, 101.229807, , , 0.000000, , , 
61009, , 10.074630, 3.327525, -0.077939, -3.302535, 0.263328, 0.266956, -1.341005, -1.693195, -0.233184, -0.860107, -0.368652, 0.083008, 0.100788, 0.033155, -0.000149, 0.999941, -0.006705, -0.008466, -0.001166, 17.830296, -80.612933, 98.795872, , , 0.000000, , , 
61010, , 6.148324, 1.053089, 1.659026, -0.344877, -1.005484, -3.446219, -2.152577, -2.290242, 0.009889, -0.862305, -0.368652, 0.093506, 0.061288, 0.010717, 0.017178, 0.999877, -0.010762, -0.011451, 0.000049, 19.297049, -81.888684, 96.050024, , , 0.000000, , , 
61011, , 5.639296, 0.273879, 3.940505, 1.342899, -2.951553, -3.739389, -2.043678, -3.024251, 0.294777, -0.862549, -0.362549, 0.114502, 0.055784, 0.003230, 0.040220, 0.999832, -0.010218, -0.015120, 0.001474, 21.668038, -83.569714, 92.479053, , , 0.000000, , , 
61012, , 6.866181, -1.490641, 1.544029, 1.977039, -0.154457, -2.898019, -1.379661, -3.203538, 0.634446, -0.860596, -0.358398, 0.135498, 0.068448, -0.014577, 0.016639, 0.999843, -0.006898, -0.016017, 0.003172, 24.965099, -85.432668, 88.358081, , , 0.000000, , , 
61013, , 7.429478, -2.124351, -0.683003, 1.720631, 1.930374, -2.499413, -0.608430, -3.193665, 0.814908, -0.858643, -0.358643, 0.164795, 0.074476, -0.020959, -0.005578, 0.999860, -0.003042, -0.015968, 0.004074, 31.892617, -87.265289, 81.067438, , , 0.000000, , , 
61014, , 8.062901, -1.889559, -1.890594, 1.088842, 2.717210, -1.839003, -0.664484, -3.167975, 0.837524, -0.856934, -0.348389, 0.185791, 0.080993, -0.018617, -0.017563, 0.999860, -0.003322, -0.015839, 0.004187, 62.827772, -88.939522, 49.725440, , , 0.000000, , , 
61015, , 9.062248, -1.355734, -1.711772, 0.736934, 2.086429, -0.757919, -1.333566, -2.979726, 0.773016, -0.855225, -0.342041, 0.200439, 0.090915, -0.013314, -0.015675, 0.999859, -0.006668, -0.014898, 0.003865, 157.203627, -88.684600, -45.427356, , , 0.000000, , , 
61016, , 9.565620, -0.948727, -1.152011, 0.636530, 1.129874, -0.218910, -2.002513, -2.538205, 0.660647, -0.853027, -0.344238, 0.210938, 0.095822, -0.009278, -0.010211, 0.999864, -0.010012, -0.012690, 0.003303, 176.658116, -87.306902, -66.056604, , , 0.000000, , , 
61017, , 9.766479, -0.968641, -1.159116, 0.713882, 0.895570, 0.003113, -2.246771, -2.074063, 0.497624, -0.851074, -0.340088, 0.217285, 0.097801, -0.009565, -0.010469, 0.999880, -0.011233, -0.010370, 0.002488, -179.263194, -86.124487, -71.431882, , , 0.000000, , , 
61018, , 9.587890, -0.909092, -1.155072, 0.707960, 0.678646, -0.162632, -2.255007, -1.729895, 0.372536, -0.846680, -0.346436, 0.223389, 0.095990, -0.009035, -0.010619, 0.999897, -0.011275, -0.008649, 0.001863, -177.936201, -85.104987, -74.079375, , , 0.000000, , , 
61019, , 9.535707, -0.850164, -0.066039, 1.025173, -0.547728, -0.309894, -2.467638, -1.675075, 0.313766, -0.851074, -0.344238, 0.225586, 0.095371, -0.008353, 0.000242, 0.999888, -0.012338, -0.008375, 0.001569, -177.860279, -84.139892, -75.576458, , , 0.000000, , , 
61020, , 10.968763, -1.031982, 0.529388, 1.422784, -1.402555, 1.034616, -2.308303, -1.618873, 0.287041, -0.842529, -0.348389, 0.231934, 0.109654, -0.010094, 0.006299, 0.999900, -0.011541, -0.008094, 0.001435, -177.912104, -83.185753, -76.877137, , , 0.000000, , , 
61021, , 11.247952, -0.762943, 0.996414, 1.295124, -2.133298, 1.226374, -1.097072, -1.283997, 0.334932, -0.842773, -0.346436, 0.238037, 0.112425, -0.007384, 0.010727, 0.999963, -0.005485, -0.006420, 0.001675, -177.297180, -82.443329, -78.131244, , , 0.000000, , , 
61022, , 10.358759, 0.746570, 1.167293, -0.162618, -2.704008, 0.281094, -0.220330, -1.116612, 0.429035, -0.842773, -0.342285, 0.244385, 0.103504, 0.007701, 0.012243, 0.999982, -0.001102, -0.005583, 0.002145, -175.849750, -81.769917, -79.741685, , , 0.000000, , , 
61023, , 9.990051, 1.670692, 1.180480, -1.085222, -3.012906, -0.131305, -0.592061, -1.240336, 0.483643, -0.844727, -0.346436, 0.248535, 0.099784, 0.016984, 0.012374, 0.999973, -0.002960, -0.006202, 0.002418, -174.773725, -81.039758, -81.173804, , , 0.000000, , , 
61024, , 10.009686, 0.962526, 1.363086, -0.385635, -3.148110, -0.173328, -1.368728, -1.393418, 0.452336, -0.838867, -0.338135, 0.263428, 0.099977, 0.009948, 0.014260, 0.999950, -0.006844, -0.006967, 0.002262, -174.398585, -80.205824, -82.370187, , , 0.000000, , , 
61025, , 9.301643, -0.474770, 1.298370, 0.951860, -2.772356, -0.877473, -1.714131, -1.290000, 0.403967, -0.838623, -0.346436, 0.265381, 0.092939, -0.004445, 0.013622, 0.999940, -0.008570, -0.006450, 0.002020, -174.517914, -79.448694, -83.247616, , , 0.000000, , , 
61026, , 8.689763, -0.839904, 0.328622, 1.069046, -1.777739, -1.326161, -1.739815, -1.075681, 0.335830, -0.838623, -0.346436, 0.261230, 0.086892, -0.008221, 0.003826, 0.999946, -0.008699, -0.005378, 0.001679, -174.776840, -78.800647, -84.015268, , , 0.000000, , , 
61027, , 7.464517, -0.838737, -1.386653, 0.717534, 0.009213, -2.208106, -1.680183, -1.015524, 0.265667, -0.836670, -0.346436, 0.269531, 0.074725, -0.008402, -0.013417, 0.999951, -0.008401, -0.005078, 0.001328, -175.262832, -78.208632, -84.502600, , , 0.000000, , , 
61028, , 7.212856, -0.671656, -3.024363, 0.292714, 1.515454, -2.115936, -1.392299, -1.175769, 0.182345, -0.834473, -0.350586, 0.271484, 0.072311, -0.006859, -0.029771, 0.999958, -0.006961, -0.005879, 0.000912, -175.781972, -77.517993, -84.805378, , , 0.000000, , , 
61029, , 8.081521, -0.403008, -3.333674, 0.045194, 1.479313, -1.187434, -1.300823, -1.344975, 0.083081, -0.830322, -0.352783, 0.283936, 0.081039, -0.004211, -0.032765, 0.999956, -0.006504, -0.006725, 0.000415, -176.562975, -76.746710, -84.769711, , , 0.000000, , , 
61030, , 9.777646, -0.666860, -2.539393, 0.509527, 0.237341, 0.295617, -1.194201, -1.363528, 0.030268, -0.830322, -0.352783, 0.288330, 0.097947, -0.006803, -0.024686, 0.999959, -0.005971, -0.006818, 0.000151, -177.315575, -75.951266, -84.715272, , , 0.000000, , , 
61031, , 10.599972, -0.805592, -1.159817, 0.889801, -1.401854, 0.751174, -0.930567, -1.170231, 0.033158, -0.823975, -0.359131, 0.292236, 0.106066, -0.008090, -0.010940, 0.999972, -0.004653, -0.005851, 0.000166, -177.900349, -75.281255, -84.662972, , , 0.000000, , , 
61032, , 10.261729, -0.187254, -0.038397, 0.422266, -2.588874, 0.109919, -0.695475, -1.013162, 0.094247, -0.821777, -0.363281, 0.300537, 0.102618, -0.001824, 0.000142, 0.999981, -0.003477, -0.005066, 0.000471, -178.134874, -74.686509, -84.847471, , , 0.000000, , , 
61033, , 9.323972, 0.780552, 0.671176, -0.478302, -3.230854, -1.019034, -0.941385, -1.006396, 0.136174, -0.813477, -0.363281, 0.306885, 0.093199, 0.007902, 0.007144, 0.999976, -0.004707, -0.005032, 0.000681, -178.471277, -74.108480, -85.059204, , , 0.000000, , , 
61034, , 9.109018, 0.705929, 1.236857, -0.362102, -3.790740, -1.416214, -1.378362, -1.109147, 0.108451, -0.821533, -0.367432, 0.308838, 0.091016, 0.007196, 0.012824, 0.999961, -0.006892, -0.005546, 0.000542, -179.079858, -73.458531, -85.260715, , , 0.000000, , , 
61035, , 10.421699, -0.494132, 1.686572, 0.888609, -4.575680, -0.327297, -1.706025, -1.120215, -0.001996, -0.811279, -0.367432, 0.304688, 0.104120, -0.004795, 0.017490, 0.999948, -0.008530, -0.005601, -0.000010, 179.909499, -72.817288, -85.227099, , , 0.000000, , , 
61036, , 11.890722, -2.212019, 0.954751, 2.572036, -4.302084, 1.235778, -1.767408, -0.962363, -0.119733, -0.808838, -0.379883, 0.314941, 0.118846, -0.022102, 0.010315, 0.999949, -0.008837, -0.004812, -0.000599, 178.727282, -72.260811, -85.060217, , , 0.000000, , , 
61037, , 13.362757, -3.269919, 0.293113, 3.647072, -4.193459, 2.775136, -1.674968, -0.743708, -0.216051, -0.804443, -0.388184, 0.308594, 0.133579, -0.032815, 0.003702, 0.999957, -0.008375, -0.003718, -0.001080, 177.416823, -71.831200, -84.692554, , , 0.000000, , , 
61038, , 13.554434, -4.041660, 0.211677, 4.451475, -4.266626, 2.918432, -1.539284, -0.455364, -0.253800, -0.806396, -0.394531, 0.304443, 0.135487, -0.040569, 0.002737, 0.999967, -0.007696, -0.002277, -0.001269, 176.154860, -71.557791, -84.300345, , , 0.000000, , , 
61039, , 13.179958, -4.349918, 0.154775, 4.780844, -4.172025, 2.532120, -1.008954, -0.216575, -0.250315, -0.800049, -0.396484, 0.306396, 0.131743, -0.043655, 0.001910, 0.999986, -0.005045, -0.001083, -0.001252, 175.164808, -71.423474, -83.866994, , , 0.000000, , , 
61040, , 13.046186, -3.382674, 0.175733, 3.842660, -4.217317, 2.398961, -0.527272, -0.044424, -0.296535, -0.801758, -0.404785, 0.304199, 0.130411, -0.034015, 0.001876, 0.999995, -0.002636, -0.000222, -0.001483, 174.394831, -71.384318, -83.379170, , , 0.000000, , , 
61041, , 13.138217, -2.015203, 0.883238, 2.527390, -4.953149, 2.292368, -0.541357, 0.130927, -0.339859, -0.799805, -0.400635, 0.295898, 0.131353, -0.020351, 0.008801, 0.999995, -0.002707, 0.000655, -0.001699, 173.472557, -71.438515, -82.734493, , , 0.000000, , , 
61042, , 12.719443, -1.191449, 2.341558, 1.728376, -6.199180, 1.468686, -0.698542, 0.329119, -0.363917, -0.797607, -0.404785, 0.293701, 0.127211, -0.012065, 0.023248, 0.999991, -0.003493, 0.001646, -0.001820, 172.420917, -71.606091, -82.050035, , , 0.000000, , , 
61043, , 13.226790, -0.652515, 3.853120, 1.240821, -7.757700, 1.523023, -0.685317, 0.503724, -0.400298, -0.797363, -0.410889, 0.283203, 0.132351, -0.006659, 0.038221, 0.999989, -0.003427, 0.002519, -0.002001, 171.203017, -71.859172, -81.182135, , , 0.000000, , , 
61044, , 15.141929, -0.824107, 4.175285, 1.536936, -8.566354, 3.288606, -0.699890, 0.891418, -0.517376, -0.799316, -0.417236, 0.276855, 0.151582, -0.008488, 0.041107, 0.999981, -0.003499, 0.004457, -0.002587, 169.683522, -72.325335, -80.003251, , , 0.000000, , , 
61045, , 16.203035, -1.284946, 4.079378, 2.127067, -8.624849, 4.396903, -0.624205, 1.562160, -0.680104, -0.798828, -0.429443, 0.260010, 0.162298, -0.013276, 0.039568, 0.999959, -0.003121, 0.007811, -0.003400, 167.514895, -73.125701, -78.107930, , , 0.000000, , , 
61046, , 16.292041, -0.924196, 4.823582, 1.865550, -9.076510, 4.458732, -0.454329, 2.440593, -0.831733, -0.802734, -0.435547, 0.239014, 0.163453, -0.009814, 0.046265, 0.999914, -0.002272, 0.012203, -0.004159, 164.545790, -74.384728, -75.278787, , , 0.000000, , , 
61047, , 15.324180, 0.423707, 5.343401, 0.588502, -8.925934, 3.734192, -0.113116, 3.284301, -0.926025, -0.808838, -0.439697, 0.207520, 0.154109, 0.003554, 0.050906, 0.999854, -0.000566, 0.016421, -0.004630, 160.403798, -76.019994, -71.063438, , , 0.000000, , , 
61048, , 14.371205, 1.895016, 4.364261, -0.757255, -7.278334, 3.438416, 0.462445, 3.846242, -1.055333, -0.806396, -0.449951, 0.182373, 0.144613, 0.018092, 0.040910, 0.999798, 0.002312, 0.019230, -0.005276, 154.657554, -77.855969, -64.882700, , , 0.000000, , , 
61049, , 13.814492, 1.892672, 3.128544, -0.604827, -5.377888, 3.411393, -2.063224, 4.856255, -1.497735, -0.815918, -0.468262, 0.125488, 0.138985, 0.018186, 0.027727, 0.999624, -0.010315, 0.024278, -0.007488, 142.379183, -79.788639, -53.576278, , , 0.000000, , , 
61050, , 16.484956, 3.366769, -0.657090, -1.496596, -1.251906, 6.910265, -2.999881, 4.268860, -0.935988, -0.813477, -0.472412, 0.083740, 0.164807, 0.032758, -0.010585, 0.999649, -0.014998, 0.021342, -0.004679, 128.013102, -81.187219, -40.746818, , , 0.000000, , , 
61051, , 13.304175, -8.150296, -4.690035, 9.760429, 3.492015, 2.752204, 3.822831, 5.017941, 0.542690, -0.824219, -0.464111, 0.067139, 0.132002, -0.080185, -0.051763, 0.999499, 0.019111, 0.025086, 0.002713, 113.544029, -82.941437, -23.931255, , , 0.000000, , , 
61052, , 16.597805, -2.857110, -7.871727, 4.514914, 7.501802, 6.583994, 5.508538, 4.697963, 0.135212, -0.820068, -0.461914, 0.058838, 0.164075, -0.026207, -0.083330, 0.999345, 0.027537, 0.023485, 0.000676, 94.255887, -83.709507, -1.321907, , , 0.000000, , , 
61053, , 18.175106, 2.766360, -7.989541, -1.317311, 8.132088, 8.460198, 1.825496, 4.133421, 0.504312, -0.826172, -0.455566, 0.027588, 0.179980, 0.028869, -0.083368, 0.999742, 0.009127, 0.020665, 0.002521, 73.466747, -83.740351, 20.640606, , , 0.000000, , , 
61054, , 19.974015, -0.363282, -6.150689, 1.852803, 7.283052, 9.691130, -1.058366, 3.684820, 0.803773, -0.830322, -0.451416, -0.010010, 0.198575, -0.003172, -0.065155, 0.999808, -0.005291, 0.018423, 0.004019, 54.239246, -83.232134, 39.393672, , , 0.000000, , , 
61055, , 21.035471, -3.190814, -4.348648, 4.686856, 6.476289, 10.376865, -0.319082, 3.818858, 0.808096, -0.832275, -0.451172, -0.039307, 0.209601, -0.031134, -0.047444, 0.999808, -0.001595, 0.019093, 0.004040, 39.226032, -82.056380, 54.343820, , , 0.000000, , , 
61056, , 20.316617, -1.861004, -2.357835, 3.188959, 5.157210, 9.807508, 1.685231, 4.208634, 0.772790, -0.834473, -0.447021, -0.070557, 0.202677, -0.017603, -0.027998, 0.999736, 0.008425, 0.021041, 0.003864, 28.966786, -80.300663, 65.702203, , , 0.000000, , , 
61057, , 19.245276, 1.342277, -0.939267, -0.200887, 4.161883, 9.045924, 1.891523, 4.287866, 0.751217, -0.830322, -0.442871, -0.093506, 0.192142, 0.014259, -0.013382, 0.999718, 0.009457, 0.021437, 0.003756, 22.383736, -78.265934, 73.502500, , , 0.000000, , , 
61058, , 17.597394, 1.820413, -1.277448, -1.047068, 4.834991, 7.219552, 0.936020, 4.092410, 0.773621, -0.830322, -0.438477, -0.133057, 0.175592, 0.018955, -0.016283, 0.999772, 0.004680, 0.020460, 0.003868, 17.499345, -76.206666, 79.058747, , , 0.000000, , , 
61059, , 16.388029, 0.062646, -2.299538, 0.283915, 6.341871, 5.468740, 0.401152, 3.926743, 0.928876, -0.832520, -0.432373, -0.160156, 0.163381, 0.001436, -0.026204, 0.999794, 0.002006, 0.019632, 0.004644, 13.522899, -74.177787, 83.407568, , , 0.000000, , , 
61060, , 14.872760, -1.987283, -3.583262, 1.854062, 7.940618, 3.281666, 0.779023, 3.989238, 1.058220, -0.824463, -0.424072, -0.180908, 0.148074, -0.018941, -0.038866, 0.999779, 0.003895, 0.019945, 0.005291, 10.412129, -72.055496, 87.112884, , , 0.000000, , , 
61061, , 12.372158, -0.261693, -2.966584, -0.080748, 6.843119, 0.914793, 2.141593, 4.032788, 1.125393, -0.820068, -0.427979, -0.206055, 0.123101, -0.001587, -0.032173, 0.999724, 0.010707, 0.020162, 0.005626, 8.692300, -69.881638, 90.228448, , , 0.000000, , , 
61062, , 10.087472, 3.512525, -0.261680, -3.603589, 3.311763, -0.315225, 2.464253, 3.666739, 1.077541, -0.816162, -0.417725, -0.222656, 0.100618, 0.035712, -0.004026, 0.999742, 0.012320, 0.018332, 0.005387, 7.763509, -67.897653, 92.741097, , , 0.000000, , , 
61063, , 9.307273, 5.809007, 0.294811, -5.896984, 2.312641, -0.850058, 1.021264, 3.089890, 1.074646, -0.814209, -0.413574, -0.247559, 0.092793, 0.058578, 0.001811, 0.999853, 0.005106, 0.015449, 0.005373, 6.396573, -66.215012, 94.859377, , , 0.000000, , , 
61064, , 7.796321, 1.978482, -3.582681, -2.955444, 6.043780, -4.132595, 0.838384, 3.250327, 1.023572, -0.812256, -0.407227, -0.272705, 0.077265, 0.020335, -0.037002, 0.999846, 0.004192, 0.016251, 0.005118, 5.215289, -64.431672, 96.691441, , , 0.000000, , , 
61065, , 5.093403, 0.577611, -4.076282, -1.688347, 5.685970, -7.036511, 2.161622, 3.139506, 0.698607, -0.805908, -0.409424, -0.281006, 0.050265, 0.006398, -0.041488, 0.999812, 0.010807, 0.015697, 0.003493, 5.326275, -62.675914, 97.949392, , , 0.000000, , , 
61066, , 3.443223, 2.021756, -2.806974, -2.832820, 3.535342, -7.996790, 2.400784, 2.791864, 0.437798, -0.799561, -0.411377, -0.293457, 0.033993, 0.020631, -0.028300, 0.999828, 0.012003, 0.013959, 0.002189, 5.959391, -61.123720, 98.792864, , , 0.000000, , , 
61067, , 2.135352, 2.142865, -1.871102, -2.691110, 2.074682, -8.761071, 1.328746, 2.383123, 0.308029, -0.797363, -0.411377, -0.303955, 0.021097, 0.021586, -0.018820, 0.999906, 0.006644, 0.011915, 0.001540, 6.161911, -59.783252, 99.433826, , , 0.000000, , , 
61068, , 1.552078, 0.590604, -2.000110, -1.201173, 2.278832, -9.463283, 0.636121, 2.010537, 0.204595, -0.789062, -0.413574, -0.320801, 0.015313, 0.005986, -0.020137, 0.999944, 0.003181, 0.010052, 0.001023, 6.142216, -58.680352, 99.888493, , , 0.000000, , , 
61069, , 0.724186, 0.021488, -2.194633, -0.643896, 2.154640, -10.345693, 0.679896, 1.698538, 0.016872, -0.782715, -0.413574, -0.333252, 0.007055, 0.000290, -0.022006, 0.999958, 0.003399, 0.008493, 0.000084, 6.350191, -57.712735, 100.100786, , , 0.000000, , , 
61070, , 0.205064, 0.699697, -1.905893, -1.187179, 1.451297, -10.617872, 0.880040, 1.316670, -0.106070, -0.774170, -0.421875, -0.331299, 0.001929, 0.007080, -0.019041, 0.999969, 0.004400, 0.006583, -0.000530, 6.826920, -56.979370, 100.133437, , , 0.000000, , , 
61071, , -0.211315, 1.342872, -1.783685, -1.743899, 0.933572, -10.869428, 0.865986, 0.916079, -0.210772, -0.771973, -0.427979, -0.337646, -0.002180, 0.013508, -0.017769, 0.999980, 0.004330, 0.004580, -0.001054, 7.410904, -56.442299, 100.027020, , , 0.000000, , , 
61072, , -0.466532, 1.660036, -1.995485, -2.093051, 0.851211, -11.172776, 0.940799, 0.550095, -0.234773, -0.767822, -0.427979, -0.331299, -0.004700, 0.016699, -0.019864, 0.999984, 0.004704, 0.002750, -0.001174, 8.131407, -56.140375, 99.829002, , , 0.000000, , , 
61073, , -0.585756, 1.790657, -2.500627, -2.365591, 1.120295, -11.530680, 1.155803, 0.209692, -0.195256, -0.767822, -0.432129, -0.329346, -0.005866, 0.018056, -0.024896, 0.999982, 0.005779, 0.001048, -0.000976, 8.935941, -56.003630, 99.656164, , , 0.000000, , , 
61074, , -0.701718, 1.843111, -3.198049, -2.637303, 1.559539, -11.987367, 1.361163, -0.128161, -0.138747, -0.767578, -0.438477, -0.325195, -0.006984, 0.018653, -0.031859, 0.999976, 0.006806, -0.000641, -0.000694, 9.882155, -56.102859, 99.471745, , , 0.000000, , , 
61075, , -0.780460, 1.882656, -4.053270, -2.972222, 2.142640, -12.487958, 1.531720, -0.510942, -0.104137, -0.767578, -0.442627, -0.310547, -0.007691, 0.019140, -0.040407, 0.999967, 0.007659, -0.002555, -0.000521, 10.931123, -56.378628, 99.264371, , , 0.000000, , , 
61076, , -0.512562, 1.925778, -4.950609, -3.386184, 2.950795, -12.694642, 1.597655, -0.925119, -0.084200, -0.773682, -0.444580, -0.296143, -0.004889, 0.019655, -0.049373, 0.999957, 0.007988, -0.004626, -0.000421, 12.107059, -56.925704, 98.964158, , , 0.000000, , , 
61077, , -0.083051, 1.930849, -5.074321, -3.537694, 3.262614, -12.327227, 1.489139, -1.366650, -0.093684, -0.773682, -0.446777, -0.281494, -0.000475, 0.019686, -0.050602, 0.999949, 0.007446, -0.006833, -0.000468, 13.314938, -57.676264, 98.541525, , , 0.000000, , , 
61078, , 1.347411, 1.491026, -4.318026, -3.029163, 3.569794, -10.686694, 1.203411, -1.801545, -0.024924, -0.775635, -0.448975, -0.264893, 0.013864, 0.015168, -0.042966, 0.999941, 0.006017, -0.009008, -0.000125, 14.430549, -58.721463, 98.037010, , , 0.000000, , , 
61079, , 3.528332, 1.000321, -2.670608, -2.152276, 3.538266, -7.960858, 0.973306, -2.262202, 0.053999, -0.786133, -0.448975, -0.237549, 0.035579, 0.010141, -0.026256, 0.999924, 0.004866, -0.011311, 0.000270, 15.507949, -59.980102, 97.431800, , , 0.000000, , , 
61080, , 6.605684, 0.885882, -0.760644, -1.506526, 3.489507, -4.285548, 0.567971, -2.705087, 0.252405, -0.798584, -0.453125, -0.216797, 0.066140, 0.008962, -0.006687, 0.999904, 0.002840, -0.013525, 0.001262, 16.335378, -61.555760, 96.842486, , , 0.000000, , , 
61081, , 9.657305, 1.156466, 1.416788, -1.039550, 2.873381, -0.471185, -0.106840, -3.067097, 0.413850, -0.802979, -0.442627, -0.195801, 0.096317, 0.011772, 0.015640, 0.999880, -0.000534, -0.015335, 0.002069, 16.804677, -63.306211, 96.242976, , , 0.000000, , , 
61082, , 12.198711, 2.498912, 4.627947, -1.120225, 0.542800, 3.412577, -0.910558, -3.150872, 0.492525, -0.815918, -0.434326, -0.174805, 0.121177, 0.025504, 0.048078, 0.999863, -0.004553, -0.015754, 0.002463, 16.779462, -65.165258, 95.671997, , , 0.000000, , , 
61083, , 15.112755, 3.677992, 10.408576, -0.208071, -3.949656, 8.479235, -1.910650, -2.766544, 0.475234, -0.820312, -0.421875, -0.172607, 0.149582, 0.038142, 0.105802, 0.999856, -0.009553, -0.013832, 0.002376, 16.112353, -66.761172, 95.202664, , , 0.000000, , , 
61084, , 19.148496, 0.051417, 17.498076, 5.329081, -7.773468, 14.353040, -2.436880, -2.012738, 0.284536, -0.820312, -0.424072, -0.166260, 0.189708, 0.002932, 0.176870, 0.999874, -0.012184, -0.010063, 0.001423, 14.970901, -67.958265, 94.867815, , , 0.000000, , , 
61085, , 21.665813, -5.114661, 20.893561, 11.184514, -8.575860, 17.269755, 0.539382, -1.215453, 0.066596, -0.826660, -0.424072, -0.147461, 0.215401, -0.051640, 0.210108, 0.999978, 0.002697, -0.006077, 0.000333, 15.657346, -68.638773, 94.460471, , , 0.000000, , , 
61086, , 19.785775, -0.093552, 20.074175, 6.588257, -10.300287, 15.582783, 2.785363, -0.563938, 0.051480, -0.830811, -0.424072, -0.136963, 0.197291, -0.003685, 0.201260, 0.999899, 0.013926, -0.002820, 0.000257, 17.339092, -68.977128, 94.325507, , , 0.000000, , , 
61087, , 15.136602, 1.070158, 14.505087, 3.946521, -7.493009, 9.395059, 1.212121, 0.089787, 0.207085, -0.822510, -0.419922, -0.136963, 0.151421, 0.009979, 0.145045, 0.999981, 0.006061, 0.000449, 0.001035, 17.706675, -68.962464, 94.674516, , , 0.000000, , , 
61088, , 11.556462, 0.220191, 9.547679, 3.011546, -4.173540, 4.268170, 0.152985, 0.112406, 0.395524, -0.826904, -0.417969, -0.132812, 0.115614, 0.002358, 0.095414, 0.999998, 0.000765, 0.000562, 0.001978, 17.043484, -68.979464, 95.416564, , , 0.000000, , , 
61089, , 10.127851, 0.752158, 5.605803, 1.051188, -1.484739, 1.643953, 0.203543, 0.082604, 0.455108, -0.835205, -0.413818, -0.138916, 0.101284, 0.007695, 0.056024, 0.999997, 0.001018, 0.000413, 0.002276, 16.481657, -69.008112, 96.141961, , , 0.000000, , , 
61090, , 8.557330, 0.717068, 1.408305, -0.482841, 1.568306, -1.266776, 0.671399, 0.118073, 0.505855, -0.829102, -0.407471, -0.132568, 0.085563, 0.007340, 0.014057, 0.999991, 0.003357, 0.000590, 0.002529, 15.941347, -69.032730, 97.070025, , , 0.000000, , , 
61091, , 7.666126, 1.043014, 0.288162, -1.206499, 2.070070, -2.450664, 0.943734, -0.083240, 0.606747, -0.835449, -0.407471, -0.124268, 0.076628, 0.010649, 0.002963, 0.999984, 0.004719, -0.000416, 0.003034, 15.646936, -69.172110, 97.962482, , , 0.000000, , , 
61092, , 9.732820, 2.664725, 1.186944, -2.486539, 1.363059, -0.055832, 0.700158, -0.153897, 0.620573, -0.833740, -0.395020, -0.124023, 0.097236, 0.026907, 0.012038, 0.999989, 0.003501, -0.000769, 0.003103, 15.070365, -69.364942, 98.953597, , , 0.000000, , , 
61093, , 13.142832, 3.786191, 1.179037, -3.751809, 2.052354, 3.232248, -0.045441, -0.315325, 0.664813, -0.838135, -0.386963, -0.117676, 0.131283, 0.038301, 0.011989, 0.999993, -0.000227, -0.001577, 0.003324, 14.187450, -69.634947, 99.866827, , , 0.000000, , , 
61094, , 17.860003, 4.710389, 1.765839, -4.715136, 2.665645, 7.933980, -0.457592, -0.973304, 0.612259, -0.842285, -0.384766, -0.109375, 0.178366, 0.047692, 0.018418, 0.999981, -0.002288, -0.004866, 0.003061, 13.182087, -70.278107, 100.593232, , , 0.000000, , , 
61095, , 23.046082, 0.798006, 0.196919, -2.081847, 7.012853, 12.056809, -0.216965, -1.285048, 0.519965, -0.850830, -0.380615, -0.098877, 0.230420, 0.008582, 0.003441, 0.999975, -0.001085, -0.006425, 0.002600, 12.707215, -71.061565, 100.963030, , , 0.000000, , , 
61096, , 25.105521, -5.351879, -3.111372, 2.110838, 12.687584, 12.618931, 1.785117, -0.893415, 0.210186, -0.844727, -0.376465, -0.086182, 0.251248, -0.052981, -0.030466, 0.999950, 0.008925, -0.004467, 0.001051, 13.585433, -71.614795, 101.070859, , , 0.000000, , , 
61097, , 21.549050, -5.903458, 0.916425, 4.385456, 8.398304, 10.442724, 3.771975, 0.289528, 0.177779, -0.848877, -0.378662, -0.067383, 0.215555, -0.058998, 0.007739, 0.999821, 0.018859, 0.001448, 0.000889, 15.333862, -71.478764, 101.504210, , , 0.000000, , , 
61098, , 11.346469, -4.771769, 2.086810, 4.381569, 4.038591, 1.157457, 3.814469, 2.016322, 0.528715, -0.846924, -0.378662, -0.071533, 0.113788, -0.047789, 0.018811, 0.999764, 0.019071, 0.010081, 0.002643, 15.642792, -70.479286, 103.444058, , , 0.000000, , , 
61099, , 0.345723, -2.816395, -6.126444, -0.574795, 6.437938, -11.762466, 3.624103, 1.730826, 0.497663, -0.851074, -0.378662, -0.067383, 0.002992, -0.027040, -0.061788, 0.999795, 0.018119, 0.008654, 0.002488, 16.220579, -69.603105, 105.036620, , , 0.000000, , , 
61100, , -10.344949, 7.113673, -15.049057, -12.780630, 4.909589, -23.835767, 1.049994, -0.319539, 0.497667, -0.851318, -0.370361, -0.061035, -0.103387, 0.071669, -0.150280, 0.999982, 0.005250, -0.001598, 0.002488, 16.128965, -69.893584, 105.745901, , , 0.000000, , , 
61101, , -8.279504, 11.275605, -6.836279, -12.374783, -2.908437, -18.802595, -0.947471, -2.698656, 1.142858, -0.851807, -0.358154, -0.029541, -0.082499, 0.111955, -0.070009, 0.999881, -0.004737, -0.013493, 0.005714, 14.973458, -71.558059, 106.392907, , , 0.000000, , , 
61102, , -1.314158, 0.956599, -4.748355, -3.068258, 3.035213, -12.373552, -2.740492, -3.501420, 1.394912, -0.864502, -0.347656, -0.010498, -0.012369, 0.008824, -0.047829, 0.999729, -0.013701, -0.017506, 0.006974, 12.369727, -73.739119, 107.461534, , , 0.000000, , , 
61103, , 11.564268, -7.668099, -0.231605, 5.692052, 6.756628, 0.887787, -3.285388, -3.247577, 0.898044, -0.864502, -0.347656, 0.006104, 0.115989, -0.076164, 0.000820, 0.999723, -0.016425, -0.016236, 0.004490, 9.967491, -75.663800, 107.998338, , , 0.000000, , , 
61104, , 13.715287, -10.307864, -3.351960, 6.576775, 10.730595, 2.319395, 0.237321, -2.483255, 0.336171, -0.871094, -0.341553, 0.033447, 0.137729, -0.102809, -0.031934, 0.999921, 0.001187, -0.012416, 0.001681, 10.317654, -77.137486, 107.773574, , , 0.000000, , , 
61105, , 16.534439, -4.200951, -4.233948, 0.638974, 8.941942, 5.306305, 2.321079, -2.547995, 0.229541, -0.871338, -0.339600, 0.060547, 0.165918, -0.041341, -0.040710, 0.999851, 0.011605, -0.012739, 0.001148, 12.395863, -78.594353, 107.006425, , , 0.000000, , , 
61106, , 16.881157, 0.707293, -4.080292, -3.497995, 6.154505, 6.061689, 0.525539, -2.227250, 0.067642, -0.869141, -0.339600, 0.075195, 0.169249, 0.007234, -0.038901, 0.999934, 0.002628, -0.011136, 0.000338, 13.975665, -79.884151, 105.698925, , , 0.000000, , , 
61107, , 11.241645, 0.342886, -1.064600, -1.300835, 2.556558, 1.114056, -0.782464, -1.874881, -0.006860, -0.869385, -0.339600, 0.093994, 0.112510, 0.003386, -0.009605, 0.999948, -0.003912, -0.009374, -0.000034, 15.162247, -80.922531, 104.039026, , , 0.000000, , , 
61108, , 8.750625, -0.330891, 1.333214, 0.643723, 0.265660, -0.982476, -0.293707, -2.055188, -0.020026, -0.867188, -0.345947, 0.116943, 0.087363, -0.003297, 0.014235, 0.999946, -0.001469, -0.010276, -0.000100, 17.213533, -82.082925, 101.783315, , , 0.000000, , , 
61109, , 7.248665, 0.807772, 1.915850, 0.051770, -1.139693, -2.358665, 0.470397, -2.063518, 0.130371, -0.867188, -0.341797, 0.131592, 0.072278, 0.008079, 0.019924, 0.999944, 0.002352, -0.010317, 0.000652, 19.869415, -83.227308, 99.375475, , , 0.000000, , , 
61110, , 6.668899, 2.280662, 1.740778, -1.240221, -1.920828, -2.922412, 0.305175, -2.271980, 0.385767, -0.863525, -0.333740, 0.156738, 0.066441, 0.022908, 0.018198, 0.999932, 0.001526, -0.011360, 0.001929, 22.497536, -84.554584, 96.902376, , , 0.000000, , , 
61111, , 7.302348, 2.805711, 0.978018, -2.026730, -1.624890, -2.369445, -0.708957, -2.732591, 0.601118, -0.853271, -0.329590, 0.173584, 0.072797, 0.028313, 0.010676, 0.999896, -0.003545, -0.013662, 0.003005, 26.189390, -86.123241, 92.789214, , , 0.000000, , , 
61112, , 9.362848, 1.975136, -0.843475, -2.131910, 0.289792, -0.450991, -1.017950, -2.810887, 0.650424, -0.861816, -0.327637, 0.196533, 0.093671, 0.020017, -0.007220, 0.999883, -0.005090, -0.014054, 0.003252, 34.946922, -87.736283, 83.428813, , , 0.000000, , , 
61113, , 10.545657, 2.079996, -0.988305, -2.218110, 0.172764, 0.749450, -0.723811, -2.495913, 0.601338, -0.861816, -0.325439, 0.207031, 0.105506, 0.021084, -0.008643, 0.999911, -0.003619, -0.012479, 0.003007, 65.396369, -88.959132, 52.552185, , , 0.000000, , , 
61114, , 10.792027, 2.267186, 0.010761, -1.854355, -1.026737, 1.009114, -1.270677, -2.203650, 0.504300, -0.857666, -0.325684, 0.217529, 0.107854, 0.022949, 0.001151, 0.999916, -0.006353, -0.011018, 0.002521, 142.521660, -88.935263, -25.319997, , , 0.000000, , , 
61115, , 10.899256, 0.807147, 0.517903, -0.278114, -1.016648, 1.077632, -2.268136, -1.981217, 0.394211, -0.851318, -0.329834, 0.228027, 0.108918, 0.008352, 0.006165, 0.999885, -0.011340, -0.009906, 0.001971, 166.934522, -87.979687, -51.042515, , , 0.000000, , , 
61116, , 10.773074, -0.977013, 0.304502, 1.276150, -0.246931, 0.930372, -2.496024, -1.649895, 0.290016, -0.853271, -0.335938, 0.229980, 0.107714, -0.009568, 0.004054, 0.999887, -0.012480, -0.008249, 0.001450, 173.303262, -87.053348, -58.863565, , , 0.000000, , , 
61117, , 9.486891, -1.776350, 0.807881, 2.215846, -0.497099, -0.397280, -2.015082, -1.284670, 0.268519, -0.857422, -0.335938, 0.229980, 0.094837, -0.017549, 0.008866, 0.999928, -0.010075, -0.006423, 0.001343, 175.947263, -86.333823, -62.670344, , , 0.000000, , , 
61118, , 8.119763, -1.461462, 1.390549, 2.129297, -1.229581, -1.815642, -1.952228, -1.199727, 0.290035, -0.851318, -0.335938, 0.238281, 0.081133, -0.014357, 0.014533, 0.999933, -0.009761, -0.005999, 0.001450, 177.846786, -85.635661, -65.714418, , , 0.000000, , , 
61119, , 7.513314, -1.563289, 0.542414, 1.895576, -0.504608, -2.373710, -2.325049, -1.380430, 0.320891, -0.855469, -0.335938, 0.240234, 0.075117, -0.015444, 0.006123, 0.999907, -0.011625, -0.006902, 0.001604, 178.954757, -84.849433, -68.164926, , , 0.000000, , , 
61120, , 7.865105, -1.737331, -0.883464, 1.600224, 0.699396, -1.900265, -2.290730, -1.636989, 0.350061, -0.851074, -0.344238, 0.246582, 0.078749, -0.017330, -0.007992, 0.999899, -0.011453, -0.008185, 0.001750, 179.873182, -83.891956, -70.422792, , , 0.000000, , , 
61121, , 8.744944, -1.518079, -1.897747, 1.148579, 1.322341, -0.907106, -1.916360, -1.737392, 0.329194, -0.849121, -0.344482, 0.254883, 0.087634, -0.015213, -0.018071, 0.999915, -0.009582, -0.008687, 0.001646, -179.638486, -82.895511, -72.021706, , , 0.000000, , , 
61122, , 9.292641, -1.327353, -2.492638, 0.868510, 1.584003, -0.270037, -1.509134, -1.672296, 0.302271, -0.849121, -0.344482, 0.263184, 0.093150, -0.013317, -0.024048, 0.999935, -0.007546, -0.008361, 0.001511, -179.218332, -81.913569, -73.334853, , , 0.000000, , , 
61123, , 9.531401, -1.295312, -2.502768, 0.905010, 1.389112, -0.012775, -1.171936, -1.541223, 0.233421, -0.842773, -0.348633, 0.267334, 0.095518, -0.012985, -0.024216, 0.999952, -0.005860, -0.007706, 0.001167, -179.103838, -81.028114, -74.131653, , , 0.000000, , , 
61124, , 9.672529, -1.328658, -2.068064, 1.117793, 0.812605, 0.071056, -0.980253, -1.377201, 0.165735, -0.840576, -0.348633, 0.273682, 0.096875, -0.013305, -0.019949, 0.999964, -0.004901, -0.006886, 0.000829, -179.114480, -80.216233, -74.708671, , , 0.000000, , , 
61125, , 9.872315, -1.611479, -1.433772, 1.616021, 0.119228, 0.161667, -0.804030, -1.290548, 0.112091, -0.832275, -0.352783, 0.283936, 0.098822, -0.016115, -0.013635, 0.999971, -0.004020, -0.006453, 0.000560, -179.290666, -79.475434, -74.999786, , , 0.000000, , , 
61126, , 10.334700, -1.503934, -0.933967, 1.705597, -0.606601, 0.515011, -0.679860, -1.294935, 0.068107, -0.832275, -0.352783, 0.292480, 0.103409, -0.015034, -0.008619, 0.999973, -0.003399, -0.006475, 0.000341, -179.482200, -78.712343, -75.222514, , , 0.000000, , , 
61127, , 10.645523, -0.752079, -1.048239, 1.005061, -0.893509, 0.825986, -0.765034, -1.284592, 0.058853, -0.834473, -0.354980, 0.298584, 0.106522, -0.007528, -0.009770, 0.999972, -0.003825, -0.006423, 0.000294, -179.794240, -77.975539, -75.353611, , , 0.000000, , , 
61128, , 10.255244, 0.283059, -1.277935, -0.035271, -0.997224, 0.477413, -0.945743, -1.288052, 0.047115, -0.823975, -0.357178, 0.300781, 0.102631, 0.002796, -0.012132, 0.999968, -0.004729, -0.006440, 0.000236, 179.822223, -77.217598, -75.535963, , , 0.000000, , , 
61129, , 9.761048, 1.386913, -1.420204, -1.125249, -1.149316, 0.017378, -1.007509, -1.387756, 0.018682, -0.819824, -0.361328, 0.311035, 0.097705, 0.013809, -0.013594, 0.999963, -0.005037, -0.006939, 0.000093, 179.303496, -76.421934, -75.598276, , , 0.000000, , , 
61130, , 9.373072, 2.351343, -0.767294, -1.895006, -2.021431, -0.523249, -1.070265, -1.504614, -0.053187, -0.815430, -0.365479, 0.319336, 0.093792, 0.023449, -0.007093, 0.999957, -0.005351, -0.007523, -0.000266, 178.654663, -75.541909, -75.585002, , , 0.000000, , , 
61131, , 8.730158, 2.217848, 0.587230, -1.475715, -3.218092, -1.509404, -1.220878, -1.552394, -0.131140, -0.809082, -0.373779, 0.329834, 0.087268, 0.022159, 0.006414, 0.999951, -0.006104, -0.007762, -0.000656, 177.765660, -74.649823, -75.391176, , , 0.000000, , , 
61132, , 8.840954, 1.042405, 1.814737, -0.049385, -4.255689, -1.785995, -1.314545, -1.505032, -0.184065, -0.809082, -0.371826, 0.335938, 0.088280, 0.010465, 0.018743, 0.999950, -0.006573, -0.007525, -0.000920, 176.797054, -73.765622, -75.188935, , , 0.000000, , , 
61133, , 9.737380, -0.496408, 2.252391, 1.621274, -4.711141, -1.134483, -1.307823, -1.340779, -0.249766, -0.802490, -0.390381, 0.337891, 0.097214, -0.004935, 0.023208, 0.999955, -0.006539, -0.006704, -0.001249, 175.726583, -72.988892, -74.856101, , , 0.000000, , , 
61134, , 10.287551, -1.663862, 1.648876, 2.724664, -4.197115, -0.523992, -1.217231, -1.091150, -0.298234, -0.794189, -0.390381, 0.344238, 0.102758, -0.016689, 0.017151, 0.999965, -0.006086, -0.005456, -0.001491, 174.666348, -72.338808, -74.496069, , , 0.000000, , , 
61135, , 10.971321, -1.886517, 0.852097, 2.903508, -3.720848, 0.305539, -1.327799, -0.898435, -0.288775, -0.791992, -0.392578, 0.343994, 0.109646, -0.018964, 0.009139, 0.999967, -0.006639, -0.004492, -0.001444, 173.550326, -71.808851, -74.125050, , , 0.000000, , , 
61136, , 11.050594, -2.105061, -0.219123, 3.007274, -2.810373, 0.658789, -1.582272, -0.744049, -0.279286, -0.789551, -0.409180, 0.343750, 0.110483, -0.021219, -0.001613, 0.999961, -0.007911, -0.003720, -0.001396, 172.343673, -71.355391, -73.825839, , , 0.000000, , , 
61137, , 10.332902, -2.431983, -0.745091, 3.246863, -2.142985, 0.092008, -1.517081, -0.666748, -0.264794, -0.785156, -0.413330, 0.345947, 0.103320, -0.024510, -0.006921, 0.999965, -0.007585, -0.003334, -0.001324, 171.185548, -70.954551, -73.522969, , , 0.000000, , , 
61138, , 10.310742, -2.900494, -0.070690, 3.834146, -2.799507, -0.211110, -1.260768, -0.683336, -0.313707, -0.778564, -0.423584, 0.345703, 0.103063, -0.029169, -0.000171, 0.999973, -0.006304, -0.003417, -0.001569, 170.150088, -70.529193, -73.209226, , , 0.000000, , , 
61139, , 11.335475, -3.793783, 0.534483, 4.925343, -3.670148, 0.455777, -1.032081, -0.598127, -0.371977, -0.778564, -0.423584, 0.345703, 0.113267, -0.038119, 0.005880, 0.999980, -0.005160, -0.002991, -0.001860, 169.135472, -70.152631, -72.762189, , , 0.000000, , , 
61140, , 12.054190, -4.149919, 0.749627, 5.414639, -4.138476, 0.987375, -0.721304, -0.349942, -0.398206, -0.776367, -0.427734, 0.345703, 0.120445, -0.041711, 0.007857, 0.999990, -0.003607, -0.001750, -0.001991, 168.233523, -69.902182, -72.256336, , , 0.000000, , , 
61141, , 12.849570, -3.489081, 1.117818, 4.920924, -4.859178, 1.620041, -0.611386, -0.083451, -0.394350, -0.774170, -0.434082, 0.343506, 0.128422, -0.035110, 0.011339, 0.999993, -0.003057, -0.000417, -0.001972, 167.300327, -69.806368, -71.637924, , , 0.000000, , , 
61142, , 13.819977, -3.005526, 1.516644, 4.619368, -5.614277, 2.412955, -0.665277, 0.140396, -0.390964, -0.776123, -0.442383, 0.341309, 0.138151, -0.030275, 0.015170, 0.999992, -0.003326, 0.000702, -0.001955, 166.310129, -69.829207, -70.996510, , , 0.000000, , , 
61143, , 15.565514, -2.969247, 1.683720, 4.837072, -6.309573, 3.997746, -0.589199, 0.491898, -0.400190, -0.776123, -0.436035, 0.326660, 0.155636, -0.029955, 0.016542, 0.999991, -0.002946, 0.002459, -0.002001, 165.165496, -70.044589, -70.139815, , , 0.000000, , , 
61144, , 16.411776, -2.718923, 2.304383, 4.774021, -7.087468, 4.644951, -0.332703, 0.994406, -0.422204, -0.777832, -0.450439, 0.322266, 0.164172, -0.027498, 0.022273, 0.999984, -0.001664, 0.004972, -0.002111, 163.944346, -70.532481, -69.049474, , , 0.000000, , , 
61145, , 16.629343, -2.539791, 2.697990, 4.708283, -7.349171, 4.818795, -0.036750, 1.562209, -0.492117, -0.779785, -0.450439, 0.307617, 0.166434, -0.025803, 0.025685, 0.999966, -0.000184, 0.007811, -0.002461, 162.384997, -71.306249, -67.424291, , , 0.000000, , , 
61146, , 17.187193, -2.159132, 2.508562, 4.459147, -7.049675, 5.574195, 0.312670, 2.433030, -0.603299, -0.779785, -0.452393, 0.288818, 0.172094, -0.022147, 0.022959, 0.999920, 0.001563, 0.012165, -0.003016, 160.233964, -72.523321, -64.976769, , , 0.000000, , , 
61147, , 16.560175, -0.731768, 2.552498, 3.058582, -6.592691, 5.301575, 0.582663, 3.525645, -0.657627, -0.791748, -0.458496, 0.265869, 0.165992, -0.007932, 0.022579, 0.999835, 0.002913, 0.017627, -0.003288, 156.906773, -74.265483, -61.159399, , , 0.000000, , , 
61148, , 14.354130, 1.633289, 2.026534, 0.464716, -5.268667, 3.781804, 1.112318, 4.213076, -0.632441, -0.802002, -0.458252, 0.230225, 0.143977, 0.015776, 0.017324, 0.999758, 0.005561, 0.021064, -0.003162, 152.405906, -76.306795, -55.849009, , , 0.000000, , , 
61149, , 12.906053, 3.894331, 0.783619, -2.028143, -3.538347, 3.059452, 1.496128, 4.249055, -0.553554, -0.801758, -0.462402, 0.207275, 0.129299, 0.038539, 0.005380, 0.999743, 0.007480, 0.021243, -0.002768, 146.563867, -78.244716, -48.984771, , , 0.000000, , , 
