PacketCounter, SampleTimeFine, Acc_X, Acc_Y, Acc_Z, FreeAcc_X, FreeAcc_Y, FreeAcc_Z, Gyr_X, Gyr_Y, Gyr_Z, Mag_X, Mag_Y, Mag_Z, VelInc_X, VelInc_Y, VelInc_Z, OriInc_q0, OriInc_q1, OriInc_q2, OriInc_q3, Roll, Pitch, Yaw, Latitude, Longitude, Altitude, Vel_X, Vel_Y, Vel_Z
24441, , 9.614250, -1.677731, -0.868466, -0.000000, -0.000000, -0.014585, -0.174901, 0.006238, 0.017748, -0.719482, 0.548828, 0.075439, 0.096144, -0.016776, -0.008673, 1.000000, -0.000875, 0.000031, 0.000089, -117.337889, -78.886810, 25.211544, , , 0.000000, , , 
24442, , 9.580046, -1.616219, -0.890959, 0.000000, 0.000000, -0.056497, -0.137066, -0.005281, 0.016022, -0.717041, 0.544434, 0.083984, 0.095802, -0.016161, -0.008896, 1.000000, -0.000685, -0.000026, 0.000080, -118.831599, -79.100706, 25.767795, , , 0.000000, , , 
24443, , 9.585174, -1.722692, -0.994244, -0.081452, -0.111786, -0.024295, -0.117931, -0.010074, 0.008298, -0.719238, 0.540039, 0.086182, 0.095853, -0.017229, -0.009927, 1.000000, -0.000590, -0.000050, 0.000041, -118.129081, -78.991045, 25.399749, , , 0.000000, , , 
24444, , 9.695380, -1.713906, -0.858053, -0.048304, 0.035084, 0.070155, -0.109373, -0.007125, 0.011880, -0.712646, 0.546631, 0.092285, 0.096955, -0.017138, -0.008568, 1.000000, -0.000547, -0.000036, 0.000059, -118.193735, -78.983117, 25.401773, , , 0.000000, , , 
24445, , 9.739557, -1.629523, -0.700445, 0.050009, 0.194262, 0.085024, -0.253091, 0.001641, 0.037338, -0.723877, 0.544434, 0.088135, 0.097399, -0.016286, -0.006985, 0.999999, -0.001265, 0.000008, 0.000187, -118.288305, -78.964374, 25.349590, , , 0.000000, , , 
24446, , 9.574269, -1.587452, -0.890380, 0.056869, -0.005705, -0.067117, -0.391707, 0.000221, 0.058059, -0.714844, 0.544434, 0.088135, 0.095747, -0.015864, -0.008873, 0.999998, -0.001959, 0.000001, 0.000290, -118.431255, -78.935161, 25.266569, , , 0.000000, , , 
24447, , 9.678558, -1.642485, -0.755742, 0.030716, 0.147351, 0.032145, -0.547222, 0.005068, 0.084367, -0.714844, 0.544434, 0.090332, 0.096792, -0.016405, -0.007515, 0.999996, -0.002736, 0.000025, 0.000422, -118.613080, -78.894294, 25.132388, , , 0.000000, , , 
24448, , 9.366579, -1.793662, -1.108683, -0.187615, -0.208044, -0.215777, -0.656478, -0.017149, 0.087466, -0.719482, 0.544434, 0.105225, 0.093675, -0.017932, -0.011020, 0.999995, -0.003282, -0.000086, 0.000437, -118.910428, -78.845635, 25.052092, , , 0.000000, , , 
24449, , 9.517949, -1.782900, -1.264100, -0.158030, -0.338925, -0.054194, -0.469341, -0.023328, 0.066077, -0.712891, 0.548828, 0.103027, 0.095187, -0.017827, -0.012588, 0.999997, -0.002347, -0.000117, 0.000330, -119.144526, -78.805847, 25.016642, , , 0.000000, , , 
24450, , 9.694861, -1.767942, -1.255719, -0.110882, -0.309055, 0.116309, -0.330110, 0.000834, 0.041007, -0.719482, 0.548828, 0.100830, 0.096952, -0.017680, -0.012528, 0.999999, -0.001651, 0.000004, 0.000205, -119.273678, -78.785572, 24.955489, , , 0.000000, , , 
24451, , 9.867244, -1.579863, -1.162499, 0.110789, -0.213988, 0.244738, -0.228466, 0.025616, 0.025257, -0.719482, 0.544434, 0.109375, 0.098673, -0.015799, -0.011620, 0.999999, -0.001142, 0.000128, 0.000126, -119.311741, -78.778169, 24.860560, , , 0.000000, , , 
24452, , 9.898996, -1.524306, -1.226952, 0.166343, -0.280948, 0.272571, -0.178632, 0.055687, 0.022454, -0.710449, 0.540039, 0.105225, 0.098988, -0.015243, -0.012283, 1.000000, -0.000893, 0.000278, 0.000112, -119.242069, -78.782550, 24.685187, , , 0.000000, , , 
24453, , 9.812960, -1.454039, -1.113209, 0.227993, -0.184604, 0.165368, -0.189404, 0.086193, 0.025308, -0.721680, 0.544434, 0.103027, 0.098127, -0.014539, -0.011161, 0.999999, -0.000947, 0.000431, 0.000127, -119.117359, -78.792257, 24.446653, , , 0.000000, , , 
24454, , 9.695785, -1.535217, -1.169874, 0.122909, -0.249360, 0.069440, -0.253823, 0.109750, 0.027722, -0.719238, 0.542236, 0.105225, 0.096954, -0.015354, -0.011732, 0.999999, -0.001269, 0.000549, 0.000139, -118.946168, -78.808886, 24.123886, , , 0.000000, , , 
24455, , 9.698345, -1.654066, -1.079725, 0.012825, -0.155432, 0.083540, -0.277287, 0.135126, 0.040348, -0.719238, 0.542236, 0.098877, 0.096979, -0.016536, -0.010840, 0.999999, -0.001386, 0.000676, 0.000202, -118.739679, -78.825107, 23.750150, , , 0.000000, , , 
24456, , 9.646927, -1.580687, -1.077805, 0.076152, -0.173705, 0.020291, -0.290041, 0.149579, 0.047870, -0.712646, 0.540039, 0.107422, 0.096465, -0.015799, -0.010827, 0.999999, -0.001450, 0.000748, 0.000239, -118.458157, -78.842050, 23.293808, , , 0.000000, , , 
24457, , 9.603716, -1.568998, -1.104944, 0.077930, -0.214713, -0.021782, -0.280470, 0.170006, 0.052349, -0.719482, 0.546631, 0.107178, 0.096032, -0.015680, -0.011109, 0.999999, -0.001402, 0.000850, 0.000262, -118.155318, -78.860795, 22.819695, , , 0.000000, , , 
24458, , 9.699764, -1.610441, -1.106117, 0.055639, -0.217847, 0.079323, -0.225623, 0.183444, 0.061109, -0.717285, 0.548828, 0.104980, 0.096992, -0.016087, -0.011132, 0.999999, -0.001128, 0.000917, 0.000306, -117.729232, -78.879115, 22.253692, , , 0.000000, , , 
24459, , 9.695402, -1.674131, -1.090100, -0.004194, -0.209742, 0.084171, -0.154160, 0.199214, 0.067235, -0.719482, 0.546631, 0.107178, 0.096949, -0.016717, -0.010985, 0.999999, -0.000771, 0.000996, 0.000336, -117.269991, -78.896540, 21.693445, , , 0.000000, , , 
24460, , 9.734071, -1.702977, -1.092300, -0.022439, -0.224921, 0.126843, -0.073236, 0.215928, 0.066000, -0.715088, 0.548828, 0.107178, 0.097334, -0.017002, -0.011022, 0.999999, -0.000366, 0.001080, 0.000330, -116.662048, -78.918938, 21.031170, , , 0.000000, , , 
24461, , 9.870481, -1.661544, -1.052349, 0.049687, -0.200145, 0.249717, -0.002402, 0.241509, 0.070729, -0.717041, 0.542236, 0.096680, 0.098698, -0.016581, -0.010642, 0.999999, -0.000012, 0.001208, 0.000354, -116.009542, -78.941864, 20.362196, , , 0.000000, , , 
24462, , 9.830839, -1.775730, -1.096140, -0.068557, -0.260473, 0.233582, 0.021365, 0.271825, 0.078084, -0.714844, 0.542236, 0.100830, 0.098300, -0.017718, -0.011097, 0.999999, 0.000107, 0.001359, 0.000390, -115.178660, -78.968796, 19.528107, , , 0.000000, , , 
24463, , 9.724182, -1.673562, -1.045331, 0.021692, -0.253148, 0.106416, 0.035282, 0.286570, 0.084334, -0.717041, 0.544434, 0.105225, 0.097234, -0.016693, -0.010596, 0.999999, 0.000176, 0.001433, 0.000422, -114.375732, -78.990803, 18.727717, , , 0.000000, , , 
24464, , 9.756090, -1.674528, -0.908921, 0.044686, -0.145522, 0.126539, 0.011128, 0.302084, 0.091785, -0.721680, 0.544434, 0.096680, 0.097555, -0.016700, -0.009237, 0.999999, 0.000056, 0.001510, 0.000459, -113.445522, -79.012882, 17.786600, , , 0.000000, , , 
24465, , 9.676895, -1.674924, -0.801876, 0.044695, -0.070730, 0.040414, -0.025016, 0.309497, 0.085801, -0.714844, 0.546631, 0.090332, 0.096764, -0.016709, -0.008166, 0.999999, -0.000125, 0.001547, 0.000429, -112.623696, -79.034004, 16.930861, , , 0.000000, , , 
24466, , 9.643818, -1.740200, -0.708841, -0.010853, -0.003808, 0.012472, -0.010447, 0.311034, 0.100025, -0.712646, 0.546631, 0.092285, 0.096436, -0.017354, -0.007237, 0.999999, -0.000052, 0.001555, 0.000500, -111.665693, -79.048101, 15.948964, , , 0.000000, , , 
24467, , 9.682499, -1.753776, -0.661533, -0.006333, 0.019033, 0.049546, 0.015761, 0.306528, 0.105243, -0.719482, 0.551025, 0.090088, 0.096824, -0.017486, -0.006765, 0.999999, 0.000079, 0.001533, 0.000526, -110.794963, -79.053651, 15.067934, , , 0.000000, , , 
24468, , 9.681320, -1.834236, -0.609452, -0.072875, 0.048041, 0.059299, 0.051575, 0.303632, 0.109147, -0.719482, 0.546631, 0.088135, 0.096814, -0.018288, -0.006246, 0.999999, 0.000258, 0.001518, 0.000546, -109.809531, -79.055362, 14.094342, , , 0.000000, , , 
24469, , 9.633026, -1.850379, -0.543894, -0.083779, 0.084679, 0.010786, 0.083627, 0.296376, 0.112916, -0.715088, 0.551025, 0.081787, 0.096332, -0.018447, -0.005589, 0.999999, 0.000418, 0.001482, 0.000565, -108.921934, -79.048753, 13.235050, , , 0.000000, , , 
24470, , 9.654365, -1.953896, -0.479715, -0.166708, 0.128911, 0.046831, 0.117410, 0.289824, 0.111919, -0.712891, 0.555420, 0.081787, 0.096547, -0.019482, -0.004949, 0.999999, 0.000587, 0.001449, 0.000560, -107.936082, -79.040416, 12.299418, , , 0.000000, , , 
24471, , 9.603692, -1.881267, -0.591319, -0.106735, -0.020578, -0.009227, 0.178910, 0.285267, 0.112555, -0.706299, 0.555420, 0.077393, 0.096039, -0.018753, -0.006067, 0.999998, 0.000895, 0.001426, 0.000563, -107.000676, -79.024873, 11.447935, , , 0.000000, , , 
24472, , 9.562517, -1.830054, -0.659416, -0.061315, -0.126914, -0.055346, 0.218454, 0.282877, 0.117394, -0.710693, 0.553223, 0.075439, 0.095626, -0.018237, -0.006749, 0.999998, 0.001092, 0.001414, 0.000587, -105.976432, -79.006372, 10.532081, , , 0.000000, , , 
24473, , 9.692953, -1.806623, -0.663118, -0.004359, -0.159743, 0.068168, 0.254441, 0.303170, 0.113299, -0.712891, 0.551025, 0.075439, 0.096930, -0.018003, -0.006801, 0.999998, 0.001272, 0.001516, 0.000566, -104.943682, -78.985508, 9.626233, , , 0.000000, , , 
24474, , 9.745708, -1.845949, -0.677591, -0.024478, -0.205164, 0.127266, 0.320872, 0.316980, 0.115964, -0.712891, 0.557617, 0.073242, 0.097457, -0.018392, -0.006960, 0.999997, 0.001604, 0.001585, 0.000580, -103.772083, -78.966153, 8.619917, , , 0.000000, , , 
24475, , 9.732865, -1.767295, -0.594432, 0.067658, -0.165854, 0.095548, 0.366356, 0.334308, 0.119358, -0.712891, 0.559814, 0.066895, 0.097329, -0.017604, -0.006139, 0.999997, 0.001832, 0.001672, 0.000597, -102.620410, -78.938357, 7.656539, , , 0.000000, , , 
24476, , 9.681459, -1.643286, -0.455316, 0.200960, -0.079831, 0.015407, 0.370501, 0.342032, 0.124084, -0.712891, 0.559814, 0.062500, 0.096817, -0.016364, -0.004749, 0.999997, 0.001853, 0.001710, 0.000620, -101.353487, -78.909486, 6.581875, , , 0.000000, , , 
24477, , 9.663921, -1.765756, -0.435072, 0.089615, -0.086666, 0.020057, 0.363230, 0.346088, 0.122914, -0.715332, 0.564209, 0.056152, 0.096642, -0.017590, -0.004550, 0.999997, 0.001816, 0.001730, 0.000615, -100.190528, -78.875408, 5.603388, , , 0.000000, , , 
24478, , 9.648131, -2.009449, -0.441270, -0.142123, -0.114783, 0.050655, 0.378187, 0.350457, 0.121889, -0.708740, 0.566406, 0.051758, 0.096486, -0.020027, -0.004620, 0.999996, 0.001891, 0.001752, 0.000609, -98.909771, -78.839816, 4.518859, , , 0.000000, , , 
24479, , 9.556101, -1.991373, -0.370405, -0.126977, -0.085584, -0.045486, 0.387824, 0.350760, 0.117471, -0.712891, 0.562012, 0.043457, 0.095566, -0.019850, -0.003910, 0.999996, 0.001939, 0.001754, 0.000587, -97.739544, -78.800267, 3.545562, , , 0.000000, , , 
24480, , 9.630916, -1.974925, -0.409470, -0.089679, -0.167493, 0.025315, 0.413700, 0.355772, 0.110413, -0.710693, 0.557861, 0.039307, 0.096313, -0.019687, -0.004307, 0.999996, 0.002068, 0.001779, 0.000552, -96.443387, -78.762594, 2.465790, , , 0.000000, , , 
24481, , 9.628270, -1.865470, -0.340089, 0.030891, -0.146147, -0.000616, 0.405079, 0.372959, 0.110653, -0.710938, 0.566406, 0.039307, 0.096286, -0.018594, -0.003618, 0.999996, 0.002025, 0.001865, 0.000553, -95.216492, -78.719779, 1.448839, , , 0.000000, , , 
24482, , 9.722084, -1.762655, -0.181458, 0.168405, -0.038698, 0.068040, 0.356832, 0.390207, 0.101379, -0.710693, 0.562012, 0.035156, 0.097226, -0.017574, -0.002036, 0.999996, 0.001784, 0.001951, 0.000507, -93.873745, -78.679555, 0.288034, , , 0.000000, , , 
24483, , 9.689166, -1.844589, -0.029270, 0.098405, 0.077607, 0.049737, 0.308126, 0.393696, 0.095313, -0.708496, 0.564209, 0.024414, 0.096900, -0.018399, -0.000512, 0.999997, 0.001541, 0.001968, 0.000477, -92.673568, -78.637692, -0.761522, , , 0.000000, , , 
24484, , 9.632243, -1.859345, -0.033832, 0.079148, 0.030517, -0.002944, 0.289095, 0.384124, 0.090809, -0.710693, 0.564209, 0.026611, 0.096330, -0.018549, -0.000550, 0.999997, 0.001445, 0.001921, 0.000454, -91.406561, -78.593497, -1.885016, , , 0.000000, , , 
24485, , 9.616918, -1.995357, 0.250440, -0.034833, 0.282830, 0.008103, 0.267456, 0.378387, 0.091910, -0.715332, 0.566406, 0.022217, 0.096183, -0.019913, 0.002296, 0.999997, 0.001337, 0.001892, 0.000460, -90.269893, -78.547057, -2.891407, , , 0.000000, , , 
24486, , 9.582091, -1.988798, 0.116763, -0.036061, 0.106773, -0.026342, 0.325562, 0.376881, 0.098287, -0.710938, 0.566406, 0.020264, 0.095833, -0.019843, 0.000955, 0.999997, 0.001628, 0.001884, 0.000491, -89.022205, -78.489391, -3.974256, , , 0.000000, , , 
24487, , 9.586513, -1.909649, -0.044680, 0.041360, -0.098121, -0.038308, 0.339773, 0.370881, 0.108566, -0.708496, 0.562256, 0.013916, 0.095874, -0.019043, -0.000657, 0.999997, 0.001699, 0.001854, 0.000543, -87.888732, -78.424169, -4.938103, , , 0.000000, , , 
24488, , 9.560347, -2.004155, 0.232027, -0.034394, 0.140275, -0.042852, 0.386828, 0.367298, 0.107067, -0.710693, 0.564209, 0.015869, 0.095618, -0.019995, 0.002106, 0.999996, 0.001934, 0.001836, 0.000535, -86.658677, -78.352902, -5.967645, , , 0.000000, , , 
24489, , 9.393420, -2.110001, 0.494264, -0.152425, 0.370214, -0.180850, 0.408100, 0.350057, 0.101916, -0.706543, 0.572998, 0.005127, 0.093953, -0.021062, 0.004735, 0.999996, 0.002040, 0.001750, 0.000510, -85.547553, -78.284097, -6.864637, , , 0.000000, , , 
24490, , 9.080164, -2.409283, 0.403806, -0.505753, 0.258199, -0.426821, 0.434262, 0.325970, 0.107814, -0.706543, 0.571045, 0.000977, 0.090821, -0.024052, 0.003838, 0.999996, 0.002171, 0.001630, 0.000539, -84.431239, -78.206330, -7.750822, , , 0.000000, , , 
24491, , 8.959239, -2.702366, 0.318230, -0.812756, 0.147772, -0.485873, 0.472890, 0.289816, 0.096396, -0.710938, 0.568848, -0.009521, 0.089610, -0.026988, 0.002989, 0.999996, 0.002364, 0.001449, 0.000482, -83.436892, -78.128200, -8.495175, , , 0.000000, , , 
24492, , 9.253941, -2.712574, 0.005051, -0.767669, -0.212421, -0.202331, 0.497851, 0.265668, 0.082993, -0.706543, 0.571045, -0.009521, 0.092551, -0.027087, -0.000140, 0.999996, 0.002489, 0.001328, 0.000415, -82.463644, -78.062398, -9.198431, , , 0.000000, , , 
24493, , 9.601188, -2.154388, 0.114878, -0.138296, -0.165115, 0.025549, 0.517501, 0.274939, 0.068967, -0.706299, 0.566650, -0.013672, 0.096021, -0.021513, 0.000961, 0.999996, 0.002587, 0.001375, 0.000345, -81.509051, -77.985812, -9.873675, , , 0.000000, , , 
24494, , 10.054504, -1.472880, 0.282175, 0.631123, -0.064635, 0.333220, 0.384101, 0.295565, 0.068154, -0.710938, 0.568848, -0.013672, 0.100554, -0.014700, 0.002645, 0.999997, 0.001921, 0.001478, 0.000341, -80.534603, -77.920926, -10.645176, , , 0.000000, , , 
24495, , 10.224704, -0.931667, 0.267700, 1.203579, -0.127751, 0.386293, 0.219579, 0.319929, 0.087072, -0.701904, 0.573242, -0.015869, 0.102255, -0.009275, 0.002503, 0.999998, 0.001098, 0.001600, 0.000435, -79.672612, -77.831972, -11.399654, , , 0.000000, , , 
24496, , 10.129172, -0.607381, 0.175769, 1.508308, -0.256656, 0.220206, 0.031660, 0.370925, 0.118193, -0.708496, 0.568848, -0.017822, 0.101298, -0.006014, 0.001569, 0.999998, 0.000158, 0.001855, 0.000591, -78.750226, -77.725865, -12.325056, , , 0.000000, , , 
24497, , 9.703407, -1.325657, 0.385329, 0.732586, -0.052629, -0.039133, -0.120629, 0.387504, 0.134983, -0.708740, 0.573242, -0.018066, 0.097050, -0.013189, 0.003673, 0.999998, -0.000603, 0.001938, 0.000675, -77.951653, -77.618846, -13.216395, , , 0.000000, , , 
24498, , 9.635198, -2.205857, 0.706754, -0.119744, 0.249339, 0.093155, -0.099078, 0.383770, 0.155527, -0.702148, 0.575439, -0.026611, 0.096382, -0.021980, 0.006894, 0.999998, -0.000495, 0.001919, 0.000778, -77.124452, -77.484639, -14.121915, , , 0.000000, , , 
24499, , 9.537965, -2.474633, 1.073434, -0.379348, 0.592143, 0.074384, 0.012102, 0.355697, 0.170990, -0.706543, 0.577637, -0.032959, 0.095420, -0.024665, 0.010563, 0.999998, 0.000061, 0.001778, 0.000855, -76.371484, -77.360085, -14.891214, , , 0.000000, , , 
24500, , 9.362703, -2.389456, 1.314012, -0.310192, 0.808220, -0.099460, 0.077085, 0.298664, 0.178339, -0.704102, 0.573242, -0.032715, 0.093668, -0.023816, 0.012991, 0.999998, 0.000385, 0.001493, 0.000892, -75.702246, -77.219950, -15.532331, , , 0.000000, , , 
24501, , 9.147415, -2.519594, 1.418885, -0.467001, 0.900468, -0.272887, 0.108464, 0.223703, 0.162954, -0.699951, 0.577637, -0.034912, 0.091510, -0.025129, 0.014073, 0.999999, 0.000542, 0.001119, 0.000815, -75.184587, -77.107921, -15.999403, , , 0.000000, , , 
24502, , 9.058525, -2.683291, 1.414919, -0.633570, 0.884165, -0.321864, 0.122367, 0.141742, 0.134225, -0.695312, 0.575439, -0.030762, 0.090613, -0.026781, 0.014069, 0.999999, 0.000612, 0.000709, 0.000671, -74.861410, -77.013036, -16.259428, , , 0.000000, , , 
24503, , 9.092612, -2.718963, 1.414623, -0.651696, 0.866587, -0.278862, 0.121468, 0.062881, 0.097020, -0.697754, 0.577637, -0.037109, 0.090944, -0.027154, 0.014101, 1.000000, 0.000607, 0.000314, 0.000485, -74.637999, -76.944790, -16.414787, , , 0.000000, , , 
24504, , 9.140578, -2.407764, 1.090136, -0.338575, 0.530313, -0.318478, 0.054475, 0.012599, 0.078942, -0.697754, 0.577637, -0.037109, 0.091416, -0.024045, 0.010889, 1.000000, 0.000272, 0.000063, 0.000395, -74.630605, -76.899701, -16.390758, , , 0.000000, , , 
24505, , 9.340793, -2.265385, 0.920341, -0.153524, 0.342691, -0.164454, -0.020837, -0.030151, 0.044384, -0.699951, 0.579834, -0.032959, 0.093412, -0.022632, 0.009220, 1.000000, -0.000104, -0.000151, 0.000222, -74.647785, -76.866786, -16.380706, , , 0.000000, , , 
24506, , 9.425512, -2.321812, 0.445840, -0.198234, -0.130140, -0.098079, -0.049440, -0.068680, 0.024565, -0.697754, 0.582031, -0.030762, 0.094256, -0.023205, 0.004497, 1.000000, -0.000247, -0.000343, 0.000123, -74.857036, -76.864041, -16.195382, , , 0.000000, , , 
24507, , 9.297742, -2.530901, 0.398734, -0.427575, -0.163262, -0.179257, -0.020678, -0.055838, 0.014699, -0.695557, 0.579834, -0.032959, 0.092978, -0.025302, 0.004016, 1.000000, -0.000103, -0.000279, 0.000073, -74.941128, -76.850023, -16.122523, , , 0.000000, , , 
24508, , 9.562259, -2.416172, -0.260865, -0.271954, -0.835037, 0.014392, 0.010958, -0.035713, 0.033494, -0.699951, 0.579834, -0.035156, 0.095627, -0.024146, -0.002593, 1.000000, 0.000055, -0.000179, 0.000167, -75.043532, -76.837317, -16.011460, , , 0.000000, , , 
24509, , 10.406738, -1.610050, -0.078515, 0.710573, -0.718519, 0.669556, 0.111662, 0.027405, 0.056233, -0.699707, 0.573242, -0.037109, 0.104072, -0.016071, -0.000808, 1.000000, 0.000558, 0.000137, 0.000281, -74.911549, -76.787115, -16.081428, , , 0.000000, , , 
24510, , 10.350875, -1.030571, -0.266377, 1.266866, -0.917955, 0.474491, 0.081489, 0.132336, 0.099610, -0.690918, 0.577637, -0.032959, 0.103512, -0.010253, -0.002736, 1.000000, 0.000407, 0.000662, 0.000498, -74.620960, -76.712702, -16.332598, , , 0.000000, , , 
24511, , 9.841928, -1.243151, -0.050157, 0.963616, -0.684767, 0.036880, -0.062245, 0.210212, 0.150473, -0.699951, 0.582031, -0.032959, 0.098428, -0.012358, -0.000601, 0.999999, -0.000311, 0.001051, 0.000752, -74.256478, -76.602746, -16.743696, , , 0.000000, , , 
24512, , 9.684336, -2.207989, 0.312138, 0.012864, -0.324810, 0.119748, -0.062297, 0.250814, 0.178162, -0.693359, 0.579834, -0.035156, 0.096867, -0.021993, 0.003007, 0.999999, -0.000311, 0.001254, 0.000891, -73.835558, -76.465779, -17.213871, , , 0.000000, , , 
24513, , 9.534808, -2.379161, 0.889217, -0.156094, 0.240069, 0.050456, 0.040490, 0.255645, 0.197373, -0.697754, 0.579834, -0.041504, 0.095383, -0.023699, 0.008765, 0.999999, 0.000202, 0.001278, 0.000987, -73.391419, -76.328902, -17.652491, , , 0.000000, , , 
24514, , 9.349796, -2.445991, 1.427817, -0.231289, 0.766500, -0.076203, 0.069202, 0.229333, 0.178960, -0.693359, 0.586426, -0.043701, 0.093536, -0.024381, 0.014162, 0.999999, 0.000346, 0.001147, 0.000895, -72.962331, -76.193514, -18.054150, , , 0.000000, , , 
24515, , 9.158170, -2.764597, 1.451817, -0.571182, 0.786934, -0.185783, 0.068783, 0.162542, 0.142505, -0.686523, 0.582031, -0.045654, 0.091613, -0.027586, 0.014434, 0.999999, 0.000344, 0.000813, 0.000713, -72.647635, -76.096190, -18.337678, , , 0.000000, , , 
24516, , 9.039557, -2.839314, 1.448081, -0.660261, 0.779523, -0.282283, 0.046843, 0.087853, 0.101950, -0.693604, 0.593018, -0.041748, 0.090416, -0.028350, 0.014434, 1.000000, 0.000234, 0.000439, 0.000510, -72.501404, -76.026279, -18.461477, , , 0.000000, , , 
24517, , 9.085538, -2.699105, 1.374501, -0.507015, 0.694243, -0.274219, -0.013405, 0.026518, 0.061162, -0.691162, 0.584229, -0.045654, 0.090865, -0.026962, 0.013735, 1.000000, -0.000067, 0.000133, 0.000306, -72.465157, -75.982364, -18.509124, , , 0.000000, , , 
24518, , 9.196851, -2.645335, 1.205836, -0.428555, 0.518465, -0.190762, -0.082797, -0.026846, 0.030579, -0.688965, 0.588623, -0.043701, 0.091971, -0.026434, 0.012082, 1.000000, -0.000414, -0.000134, 0.000153, -72.596317, -75.971187, -18.423674, , , 0.000000, , , 
24519, , 9.426979, -2.433145, 0.951816, -0.171701, 0.250118, -0.035059, -0.145913, -0.060422, 0.008557, -0.688965, 0.588623, -0.045898, 0.094268, -0.024320, 0.009564, 1.000000, -0.000730, -0.000302, 0.000043, -72.768983, -75.966484, -18.331364, , , 0.000000, , , 
24520, , 9.475339, -2.161076, 0.674982, 0.098037, -0.022248, -0.071139, -0.184822, -0.069543, -0.003360, -0.695557, 0.588623, -0.039551, 0.094751, -0.021606, 0.006803, 1.000000, -0.000924, -0.000348, -0.000017, -73.029191, -75.981009, -18.173196, , , 0.000000, , , 
24521, , 9.562019, -2.033138, 0.550323, 0.240625, -0.146438, -0.025483, -0.197113, -0.070580, -0.006997, -0.691162, 0.588623, -0.037354, 0.095618, -0.020329, 0.005557, 0.999999, -0.000986, -0.000353, -0.000035, -73.243605, -75.986596, -18.067939, , , 0.000000, , , 
24522, , 9.599751, -2.183944, 0.507514, 0.101816, -0.178924, 0.043276, -0.197729, -0.065712, -0.006040, -0.688965, 0.586426, -0.037354, 0.095995, -0.021837, 0.005128, 0.999999, -0.000989, -0.000329, -0.000030, -73.501890, -76.001701, -17.919426, , , 0.000000, , , 
24523, , 9.709852, -2.357973, 0.452264, -0.042167, -0.231183, 0.186841, -0.158121, -0.054585, 0.006223, -0.688965, 0.588623, -0.039551, 0.097098, -0.023573, 0.004568, 1.000000, -0.000791, -0.000273, 0.000031, -73.686610, -76.000787, -17.824908, , , 0.000000, , , 
24524, , 9.700079, -2.287002, 0.447165, 0.026120, -0.229731, 0.160698, -0.091220, -0.027113, 0.015280, -0.686768, 0.593018, -0.031006, 0.097002, -0.022861, 0.004495, 1.000000, -0.000456, -0.000136, 0.000076, -73.813208, -75.997786, -17.749290, , , 0.000000, , , 
24525, , 9.507015, -2.058362, 0.020208, 0.193195, -0.643160, -0.108585, -0.030803, -0.015771, 0.038350, -0.688965, 0.588623, -0.033203, 0.095074, -0.020565, 0.000213, 1.000000, -0.000154, -0.000079, 0.000192, -73.876869, -75.969678, -17.706307, , , 0.000000, , , 
24526, , 9.786728, -1.800144, 0.207263, 0.519783, -0.482763, 0.115066, 0.026973, 0.031360, 0.051596, -0.691406, 0.593018, -0.037354, 0.097872, -0.017976, 0.002055, 1.000000, 0.000135, 0.000157, 0.000258, -73.830354, -75.937304, -17.739374, , , 0.000000, , , 
24527, , 9.813037, -2.278099, 0.190244, 0.066688, -0.498972, 0.250522, 0.042646, 0.075792, 0.070573, -0.688965, 0.588623, -0.033203, 0.098139, -0.022747, 0.001860, 1.000000, 0.000213, 0.000379, 0.000353, -73.686915, -75.884940, -17.865761, , , 0.000000, , , 
24528, , 9.671419, -2.405211, 0.320566, -0.078199, -0.366420, 0.151436, 0.090179, 0.103924, 0.080390, -0.691162, 0.584229, -0.037354, 0.096725, -0.024015, 0.003145, 1.000000, 0.000451, 0.000520, 0.000402, -73.465588, -75.824957, -18.041826, , , 0.000000, , , 
24529, , 9.509829, -2.368305, 0.699140, -0.060378, 0.010552, 0.012318, 0.100304, 0.119042, 0.084440, -0.691406, 0.593018, -0.039551, 0.095112, -0.023646, 0.006923, 1.000000, 0.000502, 0.000595, 0.000422, -73.224990, -75.765935, -18.235728, , , 0.000000, , , 
24530, , 9.501287, -2.604191, 0.627506, -0.286918, -0.070103, 0.054571, 0.072911, 0.124955, 0.079844, -0.686768, 0.588623, -0.041504, 0.095027, -0.026006, 0.006206, 1.000000, 0.000365, 0.000625, 0.000399, -72.971610, -75.702507, -18.455237, , , 0.000000, , , 
24531, , 9.443928, -2.455335, 0.702236, -0.146265, -0.006535, -0.030657, 0.053802, 0.124727, 0.074590, -0.686768, 0.584229, -0.041504, 0.094453, -0.024520, 0.006957, 1.000000, 0.000269, 0.000624, 0.000373, -72.737013, -75.641472, -18.668384, , , 0.000000, , , 
24532, , 9.400361, -2.536933, 0.949419, -0.221909, 0.232212, -0.035109, 0.032310, 0.114675, 0.053928, -0.691406, 0.593018, -0.041748, 0.094016, -0.025346, 0.009436, 1.000000, 0.000162, 0.000573, 0.000270, -72.515495, -75.593575, -18.879160, , , 0.000000, , , 
24533, , 9.261157, -2.558968, 0.960002, -0.271649, 0.244935, -0.163586, -0.001719, 0.088792, 0.044366, -0.684570, 0.588623, -0.037354, 0.092621, -0.025569, 0.009559, 1.000000, -0.000009, 0.000444, 0.000222, -72.371044, -75.557966, -19.032077, , , 0.000000, , , 
24534, , 9.327361, -2.413797, 0.940711, -0.112215, 0.211313, -0.135199, -0.001158, 0.063129, 0.031810, -0.684570, 0.588623, -0.043701, 0.093280, -0.024123, 0.009378, 1.000000, -0.000006, 0.000316, 0.000159, -72.265131, -75.530948, -19.143383, , , 0.000000, , , 
24535, , 9.412665, -2.279619, 0.809813, 0.036833, 0.067639, -0.094417, -0.003923, 0.046428, 0.025707, -0.691406, 0.594971, -0.041748, 0.094131, -0.022784, 0.008077, 1.000000, -0.000020, 0.000232, 0.000129, -72.209558, -75.509176, -19.210852, , , 0.000000, , , 
24536, , 9.489079, -2.072592, 0.679516, 0.253853, -0.075484, -0.079761, 0.001564, 0.041875, 0.026774, -0.684570, 0.593018, -0.035400, 0.094895, -0.020713, 0.006775, 1.000000, 0.000008, 0.000209, 0.000134, -72.144468, -75.488639, -19.278484, , , 0.000000, , , 
24537, , 9.637502, -2.020570, 0.540519, 0.337842, -0.230269, 0.040695, -0.016278, 0.057030, 0.028603, -0.684570, 0.593018, -0.041748, 0.096379, -0.020191, 0.005379, 1.000000, -0.000081, 0.000285, 0.000143, -72.090490, -75.463338, -19.355615, , , 0.000000, , , 
24538, , 9.669216, -2.282470, 0.552511, 0.094664, -0.222530, 0.134684, -0.044826, 0.076311, 0.037859, -0.684570, 0.593018, -0.035400, 0.096699, -0.022805, 0.005493, 1.000000, -0.000224, 0.000382, 0.000189, -71.988283, -75.430692, -19.489193, , , 0.000000, , , 
24539, , 9.605759, -2.349385, 0.409439, 0.014610, -0.364543, 0.077952, -0.055236, 0.105598, 0.056578, -0.684570, 0.590820, -0.043701, 0.096066, -0.023466, 0.004050, 1.000000, -0.000276, 0.000528, 0.000283, -71.882872, -75.383194, -19.644667, , , 0.000000, , , 
24540, , 9.562667, -2.303914, 0.466467, 0.056101, -0.314447, 0.029476, -0.066953, 0.128596, 0.058112, -0.684570, 0.595215, -0.041748, 0.095636, -0.023010, 0.004611, 1.000000, -0.000335, 0.000643, 0.000291, -71.700339, -75.330055, -19.874553, , , 0.000000, , , 
24541, , 9.451922, -2.418459, 0.676776, -0.067379, -0.103202, -0.033598, -0.087206, 0.141860, 0.066810, -0.688965, 0.593018, -0.039551, 0.094532, -0.024150, 0.006711, 1.000000, -0.000436, 0.000709, 0.000334, -71.535862, -75.271536, -20.104099, , , 0.000000, , , 
24542, , 9.388698, -2.502689, 0.870556, -0.149910, 0.085592, -0.058757, -0.086518, 0.143863, 0.067158, -0.682373, 0.595215, -0.043701, 0.093902, -0.024992, 0.008649, 1.000000, -0.000433, 0.000719, 0.000336, -71.342701, -75.210384, -20.356754, , , 0.000000, , , 
24543, , 9.360537, -2.725941, 0.904935, -0.365725, 0.117594, -0.028940, -0.058511, 0.124137, 0.053304, -0.687012, 0.595215, -0.039551, 0.093618, -0.027232, 0.008999, 1.000000, -0.000293, 0.000621, 0.000267, -71.201230, -75.164004, -20.547796, , , 0.000000, , , 
24544, , 9.484524, -2.622154, 0.768977, -0.235476, -0.041565, 0.054735, -0.003240, 0.121962, 0.057675, -0.684570, 0.593018, -0.041748, 0.094857, -0.026194, 0.007632, 1.000000, -0.000016, 0.000610, 0.000288, -71.002029, -75.111757, -20.757549, , , 0.000000, , , 
24545, , 9.689448, -2.166422, 0.372079, 0.244884, -0.473487, 0.108656, 0.054440, 0.106052, 0.064105, -0.682373, 0.595215, -0.045898, 0.096903, -0.021634, 0.003664, 1.000000, 0.000272, 0.000530, 0.000321, -70.852497, -75.063459, -20.892406, , , 0.000000, , , 
24546, , 9.916040, -1.607025, 0.199138, 0.840094, -0.691093, 0.175638, 0.091960, 0.155887, 0.058276, -0.682373, 0.593018, -0.050049, 0.099167, -0.016042, 0.001907, 1.000000, 0.000460, 0.000779, 0.000291, -70.533981, -75.004197, -21.169432, , , 0.000000, , , 
24547, , 9.474851, -2.003130, 0.217523, 0.355502, -0.641334, -0.153758, 0.056327, 0.199764, 0.077038, -0.684570, 0.593018, -0.054443, 0.094758, -0.019995, 0.002075, 0.999999, 0.000282, 0.000999, 0.000385, -70.187619, -74.931352, -21.499152, , , 0.000000, , , 
24548, , 9.411465, -2.253629, 0.515526, 0.116501, -0.355913, -0.128681, 0.041123, 0.239833, 0.092346, -0.680176, 0.595215, -0.045898, 0.094131, -0.022494, 0.005038, 0.999999, 0.000206, 0.001199, 0.000462, -69.761354, -74.836441, -21.918187, , , 0.000000, , , 
24549, , 9.609392, -2.393215, 0.902487, 0.052313, -0.010497, 0.131128, 0.021408, 0.268308, 0.101342, -0.682373, 0.595215, -0.056396, 0.096118, -0.023884, 0.008893, 0.999999, 0.000107, 0.001342, 0.000507, -69.337097, -74.741086, -22.350642, , , 0.000000, , , 
24550, , 9.566198, -2.531839, 1.011535, -0.078882, 0.078636, 0.133824, -0.032019, 0.276377, 0.095383, -0.684570, 0.595215, -0.054443, 0.095688, -0.025271, 0.009987, 0.999999, -0.000160, 0.001382, 0.000477, -68.894371, -74.635555, -22.830633, , , 0.000000, , , 
24551, , 9.430990, -2.797219, 1.230266, -0.353096, 0.291293, 0.090442, -0.024909, 0.264037, 0.077723, -0.682373, 0.597412, -0.056641, 0.094337, -0.027934, 0.012182, 0.999999, -0.000125, 0.001320, 0.000389, -68.483802, -74.553576, -23.271285, , , 0.000000, , , 
24552, , 9.373264, -3.142370, 1.491861, -0.683917, 0.540997, 0.147120, -0.010406, 0.223543, 0.055646, -0.677979, 0.597412, -0.054443, 0.093758, -0.031397, 0.014815, 0.999999, -0.000052, 0.001118, 0.000278, -68.110696, -74.478720, -23.666604, , , 0.000000, , , 
24553, , 9.280735, -2.912405, 1.157765, -0.494554, 0.197141, -0.031527, 0.064126, 0.180634, 0.040365, -0.684814, 0.597412, -0.058594, 0.092824, -0.029109, 0.011484, 1.000000, 0.000321, 0.000903, 0.000202, -67.802787, -74.426184, -23.957297, , , 0.000000, , , 
24554, , 9.496554, -2.156191, 1.403859, 0.303771, 0.387970, 0.013894, 0.067189, 0.160842, 0.033198, -0.680176, 0.597412, -0.060791, 0.094980, -0.021551, 0.013955, 1.000000, 0.000336, 0.000804, 0.000166, -67.493013, -74.375782, -24.240998, , , 0.000000, , , 
24555, , 9.436061, -2.045887, 1.149435, 0.386038, 0.126243, -0.097693, 0.001637, 0.146756, 0.028382, -0.684570, 0.595215, -0.064941, 0.094372, -0.020446, 0.011425, 1.000000, 0.000008, 0.000734, 0.000142, -67.262460, -74.338508, -24.482597, , , 0.000000, , , 
24556, , 9.304708, -2.432023, 1.150484, -0.017800, 0.136251, -0.127800, -0.063316, 0.131779, 0.019822, -0.677979, 0.597412, -0.064941, 0.093057, -0.024307, 0.011451, 1.000000, -0.000317, 0.000659, 0.000099, -67.074644, -74.301129, -24.717454, , , 0.000000, , , 
24557, , 9.421704, -2.854075, 1.132265, -0.398097, 0.102082, 0.088190, -0.012938, 0.110716, 0.014926, -0.677979, 0.599609, -0.058594, 0.094225, -0.028533, 0.011272, 1.000000, -0.000065, 0.000554, 0.000075, -66.885113, -74.278323, -24.915813, , , 0.000000, , , 
24558, , 9.394264, -2.723197, 0.931820, -0.286474, -0.106246, 0.007848, 0.049089, 0.103336, 0.009381, -0.682373, 0.595215, -0.064941, 0.093949, -0.027230, 0.009263, 1.000000, 0.000245, 0.000517, 0.000047, -66.679203, -74.252558, -25.102609, , , 0.000000, , , 
24559, , 9.329005, -2.667849, 1.119940, -0.241708, 0.078635, -0.048600, 0.061044, 0.086798, -0.003653, -0.684814, 0.601807, -0.060791, 0.093294, -0.026684, 0.011151, 1.000000, 0.000305, 0.000434, -0.000018, -66.509530, -74.243017, -25.249709, , , 0.000000, , , 
24560, , 9.576480, -2.807018, 0.945092, -0.324994, -0.131315, 0.205229, 0.060025, 0.097819, -0.006230, -0.682373, 0.595215, -0.069092, 0.095769, -0.028076, 0.009396, 1.000000, 0.000300, 0.000489, -0.000031, -66.296121, -74.226494, -25.437883, , , 0.000000, , , 
24561, , 9.562937, -2.380837, 0.907870, 0.080802, -0.184095, 0.081853, 0.096519, 0.120830, 0.004765, -0.682617, 0.599609, -0.062988, 0.095635, -0.023810, 0.009009, 1.000000, 0.000483, 0.000604, 0.000024, -66.044096, -74.204862, -25.645291, , , 0.000000, , , 
24562, , 9.456550, -2.133408, 1.119190, 0.302644, 0.020754, -0.058800, 0.056175, 0.145120, 0.004845, -0.680176, 0.597412, -0.064941, 0.094574, -0.021335, 0.011117, 1.000000, 0.000281, 0.000726, 0.000024, -65.755838, -74.171170, -25.913641, , , 0.000000, , , 
24563, , 9.355589, -2.099831, 1.354364, 0.320961, 0.254728, -0.137837, -0.045839, 0.136269, 0.016898, -0.678223, 0.604004, -0.071533, 0.093567, -0.020987, 0.013485, 1.000000, -0.000229, 0.000681, 0.000084, -65.589702, -74.139443, -26.127010, , , 0.000000, , , 
24564, , 9.278868, -2.589430, 1.600042, -0.159026, 0.505663, -0.061704, -0.111277, 0.112852, 0.008844, -0.682617, 0.599609, -0.062988, 0.092799, -0.025881, 0.015962, 1.000000, -0.000556, 0.000564, 0.000044, -65.462127, -74.110970, -26.328240, , , 0.000000, , , 
24565, , 9.266510, -2.995823, 1.741044, -0.547121, 0.649601, 0.043939, -0.090456, 0.062571, -0.010777, -0.680176, 0.593018, -0.066895, 0.092669, -0.029955, 0.017395, 1.000000, -0.000452, 0.000313, -0.000054, -65.421763, -74.103932, -26.436702, , , 0.000000, , , 
24566, , 9.281051, -2.925852, 1.611927, -0.482741, 0.517732, 0.025796, -0.041295, 0.009687, -0.026925, -0.682617, 0.604004, -0.069336, 0.092807, -0.029268, 0.016121, 1.000000, -0.000206, 0.000048, -0.000135, -65.413649, -74.118617, -26.472119, , , 0.000000, , , 
24567, , 9.321014, -2.639364, 1.559629, -0.200997, 0.458972, -0.013253, -0.052608, -0.026639, -0.044352, -0.682617, 0.599609, -0.064941, 0.093202, -0.026410, 0.015616, 1.000000, -0.000263, -0.000133, -0.000222, -65.466153, -74.152001, -26.451895, , , 0.000000, , , 
24568, , 9.476108, -2.359072, 1.266094, 0.090573, 0.150239, 0.032822, -0.093215, -0.055623, -0.051606, -0.682373, 0.593018, -0.066895, 0.094751, -0.023609, 0.012698, 1.000000, -0.000466, -0.000278, -0.000258, -65.587312, -74.195173, -26.383895, , , 0.000000, , , 
24569, , 9.449664, -2.217162, 1.127438, 0.210489, 0.022453, -0.043437, -0.178670, -0.053430, -0.057230, -0.675781, 0.595215, -0.060791, 0.094487, -0.022189, 0.011319, 1.000000, -0.000893, -0.000267, -0.000286, -65.748922, -74.244607, -26.324570, , , 0.000000, , , 
24570, , 9.301749, -2.420401, 1.117628, -0.025913, 0.046542, -0.136577, -0.266368, -0.068752, -0.057666, -0.684814, 0.599609, -0.058594, 0.093007, -0.024216, 0.011240, 0.999999, -0.001332, -0.000344, -0.000288, -65.990068, -74.294048, -26.235071, , , 0.000000, , , 
24571, , 9.306852, -2.625237, 1.208028, -0.219960, 0.155956, -0.071231, -0.277894, -0.075453, -0.055669, -0.682373, 0.590820, -0.064941, 0.093057, -0.026261, 0.012152, 0.999999, -0.001389, -0.000377, -0.000278, -66.277959, -74.343707, -26.117680, , , 0.000000, , , 
24572, , 9.277039, -2.495745, 1.190400, -0.104828, 0.153933, -0.134126, -0.258560, -0.089386, -0.058235, -0.682373, 0.597412, -0.056641, 0.092758, -0.024969, 0.011978, 0.999999, -0.001293, -0.000447, -0.000291, -66.555632, -74.398017, -25.985759, , , 0.000000, , , 
24573, , 9.393444, -2.172518, 1.298706, 0.240469, 0.253779, -0.090496, -0.322110, -0.095969, -0.053803, -0.680176, 0.595215, -0.050049, 0.093922, -0.021729, 0.013067, 0.999999, -0.001611, -0.000480, -0.000269, -66.868648, -74.452790, -25.847380, , , 0.000000, , , 
24574, , 9.205736, -2.197098, 1.325528, 0.173581, 0.321847, -0.263023, -0.433967, -0.112259, -0.044196, -0.682617, 0.599609, -0.048096, 0.092045, -0.021962, 0.013355, 0.999997, -0.002170, -0.000561, -0.000221, -67.304674, -74.504476, -25.655491, , , 0.000000, , , 
24575, , 9.129005, -2.257657, 1.280872, 0.097578, 0.312687, -0.327487, -0.564316, -0.136891, -0.040353, -0.687012, 0.595215, -0.039551, 0.091277, -0.022559, 0.012935, 0.999996, -0.002822, -0.000684, -0.000202, -67.894306, -74.556775, -25.399370, , , 0.000000, , , 
24576, , 8.951145, -2.270297, 0.989488, 0.025034, 0.071118, -0.525568, -0.486283, -0.177798, -0.048670, -0.678223, 0.601807, -0.041748, 0.089497, -0.022700, 0.010030, 0.999997, -0.002431, -0.000889, -0.000243, -68.488877, -74.623836, -25.074339, , , 0.000000, , , 
24577, , 9.095081, -2.444087, 1.019620, -0.105056, 0.123323, -0.341291, -0.419940, -0.216821, -0.067701, -0.684570, 0.595215, -0.037354, 0.090931, -0.024450, 0.010346, 0.999997, -0.002100, -0.001084, -0.000339, -69.137584, -74.704919, -24.672788, , , 0.000000, , , 
24578, , 9.350529, -2.648415, 0.977548, -0.246216, 0.096819, -0.048876, -0.360877, -0.252811, -0.074217, -0.684570, 0.593018, -0.033203, 0.093483, -0.026501, 0.009941, 0.999998, -0.001804, -0.001264, -0.000371, -69.798582, -74.798848, -24.204802, , , 0.000000, , , 
24579, , 9.527575, -2.493637, 0.950610, -0.057736, 0.077555, 0.081104, -0.397583, -0.264035, -0.060405, -0.689209, 0.599365, -0.027100, 0.095256, -0.024946, 0.009681, 0.999997, -0.001988, -0.001320, -0.000302, -70.518152, -74.887783, -23.701042, , , 0.000000, , , 
24580, , 9.329925, -2.273084, 0.958418, 0.109403, 0.129857, -0.163645, -0.519048, -0.273671, -0.064900, -0.682373, 0.593018, -0.022705, 0.093279, -0.022736, 0.009771, 0.999996, -0.002595, -0.001368, -0.000324, -71.332850, -74.977503, -23.168196, , , 0.000000, , , 
24581, , 9.249877, -2.739712, 1.012815, -0.355373, 0.263523, -0.122684, -0.502459, -0.297981, -0.083362, -0.680176, 0.590820, -0.022705, 0.092472, -0.027410, 0.010335, 0.999996, -0.002512, -0.001490, -0.000417, -72.196839, -75.078101, -22.586647, , , 0.000000, , , 
24582, , 9.378693, -2.702509, 0.715850, -0.317664, -0.003811, -0.031338, -0.450227, -0.316924, -0.087584, -0.687012, 0.592773, -0.016357, 0.093764, -0.027050, 0.007368, 0.999996, -0.002251, -0.001585, -0.000438, -73.064001, -75.183512, -21.959305, , , 0.000000, , , 
24583, , 9.569694, -2.428625, 1.026994, 0.019260, 0.307004, 0.108866, -0.345990, -0.325942, -0.109722, -0.687012, 0.594971, -0.010010, 0.095667, -0.024321, 0.010468, 0.999997, -0.001730, -0.001630, -0.000549, -73.864565, -75.296341, -21.335408, , , 0.000000, , , 
24584, , 9.716845, -2.595805, 1.117689, -0.102681, 0.439068, 0.296765, -0.367740, -0.335018, -0.106884, -0.689209, 0.594971, -0.007812, 0.097136, -0.025989, 0.011387, 0.999997, -0.001839, -0.001675, -0.000534, -74.732307, -75.410505, -20.659262, , , 0.000000, , , 
24585, , 9.499527, -2.434071, 0.752476, -0.037566, 0.125296, 0.021674, -0.400509, -0.342524, -0.102621, -0.693604, 0.594971, -0.001465, 0.094970, -0.024374, 0.007736, 0.999996, -0.002003, -0.001713, -0.000513, -75.637569, -75.514135, -19.968067, , , 0.000000, , , 
24586, , 9.298229, -2.037867, 0.762306, 0.295122, 0.160734, -0.269208, -0.407488, -0.349480, -0.111075, -0.691162, 0.583984, -0.001221, 0.092957, -0.020414, 0.007827, 0.999996, -0.002037, -0.001747, -0.000555, -76.581236, -75.627164, -19.237733, , , 0.000000, , , 
24587, , 9.108029, -2.260453, 0.543342, 0.005664, 0.021629, -0.412666, -0.398195, -0.374214, -0.129490, -0.686768, 0.588379, 0.002930, 0.091055, -0.022652, 0.005649, 0.999996, -0.001991, -0.001871, -0.000647, -77.541122, -75.754583, -18.473478, , , 0.000000, , , 
24588, , 9.004776, -2.211719, 0.307526, -0.004761, -0.163660, -0.536628, -0.330956, -0.406800, -0.148426, -0.693604, 0.590576, 0.007080, 0.090025, -0.022179, 0.003295, 0.999996, -0.001655, -0.002034, -0.000742, -78.578395, -75.889203, -17.602182, , , 0.000000, , , 
24589, , 9.184800, -2.206886, 0.086995, 0.007510, -0.352182, -0.372656, -0.253511, -0.427293, -0.164930, -0.689209, 0.590576, 0.019775, 0.091828, -0.022143, 0.001094, 0.999997, -0.001268, -0.002136, -0.000825, -79.572669, -76.026404, -16.715836, , , 0.000000, , , 
24590, , 9.375813, -2.283134, 0.283996, -0.010369, -0.114504, -0.159408, -0.225399, -0.437077, -0.174190, -0.697754, 0.581787, 0.024170, 0.093732, -0.022910, 0.003071, 0.999997, -0.001127, -0.002185, -0.000871, -80.644333, -76.170845, -15.747796, , , 0.000000, , , 
24591, , 9.723808, -2.738034, 0.422946, -0.364500, 0.099095, 0.291037, -0.300378, -0.437212, -0.162097, -0.699951, 0.581787, 0.028320, 0.097206, -0.027453, 0.004483, 0.999996, -0.001502, -0.002186, -0.000810, -81.792933, -76.305250, -14.752241, , , 0.000000, , , 
24592, , 9.572776, -2.484794, 0.118776, -0.200192, -0.168561, 0.074559, -0.239075, -0.449391, -0.159338, -0.688965, 0.583984, 0.030273, 0.095705, -0.024923, 0.001433, 0.999996, -0.001195, -0.002247, -0.000797, -82.948441, -76.432964, -13.707177, , , 0.000000, , , 
24593, , 9.530694, -2.250037, 0.125033, 0.006746, -0.135431, -0.020148, -0.168824, -0.455814, -0.177616, -0.697754, 0.579590, 0.032471, 0.095284, -0.022584, 0.001487, 0.999997, -0.000844, -0.002279, -0.000888, -84.088312, -76.566890, -12.638161, , , 0.000000, , , 
24594, , 9.432041, -2.022987, -0.139208, 0.159774, -0.367662, -0.173479, -0.177498, -0.472753, -0.190283, -0.695801, 0.583984, 0.038818, 0.094304, -0.020321, -0.001151, 0.999996, -0.000887, -0.002364, -0.000951, -85.299844, -76.703468, -11.500449, , , 0.000000, , , 
24595, , 9.281417, -2.030517, -0.213264, 0.096205, -0.383683, -0.317610, -0.134523, -0.484149, -0.206733, -0.695801, 0.583984, 0.042969, 0.092798, -0.020402, -0.001894, 0.999996, -0.000673, -0.002421, -0.001034, -86.513413, -76.842911, -10.331046, , , 0.000000, , , 
24596, , 9.148196, -2.021049, -0.198077, 0.063148, -0.313997, -0.447296, -0.102772, -0.494901, -0.211260, -0.702148, 0.575195, 0.047363, 0.091465, -0.020308, -0.001744, 0.999996, -0.000514, -0.002475, -0.001056, -87.782408, -76.980777, -9.091666, , , 0.000000, , , 
24597, , 9.312971, -1.933492, -0.339362, 0.152956, -0.419304, -0.305556, -0.125709, -0.506384, -0.220838, -0.704346, 0.575195, 0.045410, 0.093116, -0.019440, -0.003146, 0.999996, -0.000629, -0.002532, -0.001104, -89.110377, -77.116090, -7.805157, , , 0.000000, , , 
24598, , 9.512441, -1.931533, -0.338237, 0.183157, -0.371624, -0.109087, -0.164762, -0.493221, -0.228841, -0.693359, 0.581787, 0.053711, 0.095110, -0.019427, -0.003132, 0.999996, -0.000824, -0.002466, -0.001144, -90.463634, -77.250977, -6.517145, , , 0.000000, , , 
24599, , 9.788827, -2.090724, -0.345021, 0.073503, -0.314461, 0.197645, -0.199434, -0.476454, -0.221339, -0.699951, 0.577393, 0.064209, 0.097873, -0.021019, -0.003196, 0.999996, -0.000997, -0.002382, -0.001107, -91.780277, -77.367425, -5.279989, , , 0.000000, , , 
24600, , 9.978530, -2.310232, -0.180403, -0.093574, -0.075347, 0.430657, -0.240521, -0.437175, -0.204585, -0.704346, 0.572998, 0.066406, 0.099765, -0.023206, -0.001558, 0.999996, -0.001203, -0.002186, -0.001023, -93.081277, -77.476418, -4.091144, , , 0.000000, , , 
24601, , 10.036955, -2.302948, 0.114502, -0.051047, 0.267659, 0.482102, -0.271530, -0.413964, -0.194885, -0.699951, 0.568604, 0.066650, 0.100344, -0.023125, 0.001384, 0.999996, -0.001358, -0.002070, -0.000974, -94.379844, -77.568823, -2.933642, , , 0.000000, , , 
24602, , 10.155987, -2.779152, 0.408638, -0.463275, 0.669398, 0.693111, -0.299247, -0.400891, -0.187726, -0.704346, 0.572998, 0.072754, 0.101525, -0.027880, 0.004332, 0.999996, -0.001496, -0.002004, -0.000939, -95.656339, -77.658176, -1.805261, , , 0.000000, , , 
24603, , 9.601823, -2.676589, -0.014465, -0.548251, 0.288740, 0.135941, -0.162579, -0.416001, -0.185483, -0.704346, 0.566406, 0.077148, 0.095993, -0.026855, 0.000077, 0.999997, -0.000813, -0.002080, -0.000927, -96.882327, -77.733970, -0.646150, , , 0.000000, , , 
24604, , 9.405952, -2.202236, 0.145158, -0.123535, 0.432346, -0.161756, -0.099670, -0.443021, -0.204728, -0.699707, 0.566406, 0.081543, 0.094033, -0.022118, 0.001671, 0.999997, -0.000498, -0.002215, -0.001024, -98.192882, -77.819059, 0.633405, , , 0.000000, , , 
24605, , 9.307253, -2.226854, 0.010049, -0.199333, 0.348921, -0.251189, -0.122480, -0.467678, -0.222601, -0.706543, 0.568604, 0.085693, 0.093047, -0.022372, 0.000332, 0.999996, -0.000612, -0.002338, -0.001113, -99.590145, -77.898999, 1.985259, , , 0.000000, , , 
24606, , 9.462822, -2.264935, -0.036600, -0.226255, 0.360376, -0.091836, -0.093407, -0.509252, -0.247107, -0.706543, 0.566406, 0.087891, 0.094601, -0.022766, -0.000114, 0.999996, -0.000467, -0.002546, -0.001236, -101.128235, -77.987681, 3.500345, , , 0.000000, , , 
24607, , 9.559000, -2.392104, -0.151157, -0.360594, 0.318174, 0.030480, -0.044839, -0.523682, -0.255940, -0.708740, 0.562012, 0.096436, 0.095563, -0.024044, -0.001256, 0.999996, -0.000224, -0.002618, -0.001280, -102.666898, -78.060486, 5.043104, , , 0.000000, , , 
24608, , 9.429215, -2.246845, -0.313048, -0.286358, 0.191091, -0.120546, -0.029508, -0.545565, -0.274130, -0.706299, 0.559814, 0.094238, 0.094269, -0.022598, -0.002870, 0.999995, -0.000148, -0.002728, -0.001371, -104.322406, -78.141863, 6.714728, , , 0.000000, , , 
24609, , 9.436978, -2.126762, -0.540358, -0.215903, 0.005249, -0.126372, -0.044688, -0.550202, -0.283777, -0.713135, 0.566162, 0.100586, 0.094354, -0.021403, -0.005139, 0.999995, -0.000223, -0.002751, -0.001419, -105.995999, -78.210608, 8.394829, , , 0.000000, , , 
24610, , 9.601891, -2.147973, -0.648296, -0.237704, -0.036308, 0.044911, -0.068671, -0.552200, -0.287852, -0.710693, 0.559814, 0.098389, 0.096005, -0.021620, -0.006210, 0.999995, -0.000343, -0.002761, -0.001439, -107.742965, -78.277944, 10.136079, , , 0.000000, , , 
24611, , 9.858194, -1.868378, -0.705570, 0.058878, -0.066067, 0.245369, -0.083717, -0.534211, -0.291480, -0.715088, 0.555420, 0.111328, 0.098573, -0.018830, -0.006785, 0.999995, -0.000419, -0.002671, -0.001457, -109.384466, -78.327764, 11.769066, , , 0.000000, , , 
24612, , 9.737188, -1.530699, -0.883302, 0.317968, -0.235779, 0.075644, -0.169473, -0.506103, -0.296227, -0.712891, 0.555420, 0.111328, 0.097371, -0.015459, -0.008574, 0.999995, -0.000847, -0.002531, -0.001481, -111.109687, -78.387652, 13.428507, , , 0.000000, , , 
24613, , 9.625231, -1.700194, -0.847891, 0.113860, -0.127662, -0.003249, -0.221589, -0.499068, -0.296867, -0.710693, 0.551025, 0.119873, 0.096248, -0.017154, -0.008220, 0.999995, -0.001108, -0.002495, -0.001484, -112.815286, -78.432147, 15.040302, , , 0.000000, , , 
24614, , 9.565547, -1.946574, -0.805785, -0.155153, 0.000997, -0.019130, -0.192101, -0.492703, -0.291901, -0.715088, 0.546631, 0.122070, 0.095646, -0.019613, -0.007803, 0.999995, -0.000961, -0.002464, -0.001460, -114.542243, -78.472659, 16.687744, , , 0.000000, , , 
24615, , 9.575477, -2.148420, -0.866518, -0.378563, 0.024271, 0.031709, -0.139868, -0.499301, -0.293835, -0.712891, 0.546631, 0.128418, 0.095744, -0.021631, -0.008411, 0.999996, -0.000699, -0.002497, -0.001469, -116.226346, -78.495091, 18.321700, , , 0.000000, , , 
24616, , 9.487921, -2.038945, -0.938622, -0.320706, -0.014289, -0.068170, -0.091701, -0.490578, -0.300208, -0.719238, 0.542236, 0.122070, 0.094871, -0.020536, -0.009144, 0.999996, -0.000459, -0.002453, -0.001501, -117.917851, -78.520758, 19.991357, , , 0.000000, , , 
24617, , 9.491497, -1.919643, -0.968140, -0.229692, -0.010791, -0.083468, -0.046056, -0.485378, -0.314046, -0.719482, 0.542236, 0.134766, 0.094908, -0.019348, -0.009447, 0.999996, -0.000230, -0.002427, -0.001570, -119.513924, -78.542369, 21.601443, , , 0.000000, , , 
24618, , 9.607298, -1.921454, -1.002555, -0.238117, 0.015262, 0.033129, -0.002867, -0.488932, -0.307111, -0.719482, 0.542236, 0.136963, 0.096067, -0.019362, -0.009790, 0.999996, -0.000014, -0.002445, -0.001536, -121.170192, -78.552914, 23.286923, , , 0.000000, , , 
24619, , 9.662300, -1.649891, -0.936139, 0.024107, 0.095805, 0.033557, 0.001900, -0.487396, -0.301313, -0.719238, 0.540039, 0.136963, 0.096620, -0.016644, -0.009126, 0.999996, 0.000009, -0.002437, -0.001507, -122.748208, -78.544579, 24.900421, , , 0.000000, , , 
24620, , 9.926911, -1.884875, -1.018462, -0.190554, 0.122144, 0.340248, 0.001271, -0.483154, -0.291601, -0.719238, 0.535645, 0.147461, 0.099266, -0.018993, -0.009945, 0.999996, 0.000006, -0.002416, -0.001458, -124.362724, -78.530738, 26.545817, , , 0.000000, , , 
24621, , 9.782407, -1.222624, -1.487478, 0.351693, -0.399216, 0.143196, 0.002049, -0.453896, -0.279429, -0.721436, 0.531250, 0.149658, 0.097840, -0.012363, -0.014653, 0.999996, 0.000010, -0.002269, -0.001397, -125.809950, -78.504205, 28.025340, , , 0.000000, , , 
24622, , 9.876010, -1.059511, -1.287588, 0.531307, -0.169025, 0.187560, -0.078442, -0.424970, -0.268871, -0.718994, 0.526855, 0.147705, 0.098773, -0.010733, -0.012662, 0.999997, -0.000392, -0.002125, -0.001344, -127.287876, -78.482653, 29.485041, , , 0.000000, , , 
24623, , 9.800392, -1.193449, -1.450627, 0.346828, -0.273132, 0.156326, -0.117163, -0.401928, -0.251334, -0.723633, 0.533447, 0.156006, 0.098018, -0.012066, -0.014302, 0.999997, -0.000586, -0.002010, -0.001257, -128.654959, -78.453929, 30.814116, , , 0.000000, , , 
24624, , 9.601031, -1.238864, -1.587351, 0.230878, -0.377688, -0.012783, -0.147653, -0.385210, -0.241378, -0.721191, 0.526855, 0.154053, 0.096026, -0.012516, -0.015679, 0.999997, -0.000738, -0.001926, -0.001207, -130.023382, -78.420501, 32.121901, , , 0.000000, , , 
24625, , 9.702493, -1.474689, -1.563971, 0.003946, -0.269461, 0.121411, -0.104073, -0.364237, -0.219967, -0.725830, 0.529053, 0.158203, 0.097037, -0.014862, -0.015455, 0.999998, -0.000520, -0.001821, -0.001100, -131.202031, -78.374846, 33.267897, , , 0.000000, , , 
24626, , 9.673487, -1.381856, -1.554179, 0.074108, -0.237896, 0.078680, -0.068269, -0.336894, -0.206356, -0.721436, 0.529053, 0.158203, 0.096747, -0.013924, -0.015374, 0.999998, -0.000341, -0.001684, -0.001032, -132.341959, -78.333768, 34.389271, , , 0.000000, , , 
24627, , 9.429651, -1.240029, -1.680536, 0.142569, -0.377505, -0.162960, -0.083786, -0.319910, -0.204114, -0.721191, 0.526855, 0.164551, 0.094311, -0.012504, -0.016649, 0.999998, -0.000419, -0.001600, -0.001021, -133.337366, -78.290311, 35.365868, , , 0.000000, , , 
24628, , 9.539881, -1.513131, -1.556690, -0.105763, -0.168957, -0.030952, -0.033316, -0.306573, -0.189614, -0.723633, 0.526855, 0.166748, 0.095408, -0.015224, -0.015418, 0.999998, -0.000167, -0.001533, -0.000948, -134.347897, -78.246176, 36.375992, , , 0.000000, , , 
24629, , 9.622640, -1.379894, -1.663494, 0.014847, -0.253759, 0.046411, 0.040646, -0.289175, -0.170057, -0.725830, 0.526855, 0.164551, 0.096239, -0.013877, -0.016499, 0.999999, 0.000203, -0.001446, -0.000850, -135.140447, -78.188245, 37.213092, , , 0.000000, , , 
24630, , 9.742173, -1.292894, -1.717378, 0.101595, -0.275656, 0.159499, 0.081139, -0.271968, -0.158732, -0.725586, 0.524658, 0.168945, 0.097435, -0.012999, -0.017047, 0.999999, 0.000406, -0.001360, -0.000794, -135.942410, -78.139730, 38.077579, , , 0.000000, , , 
24631, , 9.789639, -1.234373, -1.704259, 0.161701, -0.241434, 0.196344, 0.096928, -0.245642, -0.139155, -0.725586, 0.524658, 0.166748, 0.097909, -0.012404, -0.016928, 0.999999, 0.000485, -0.001228, -0.000696, -136.528900, -78.087965, 38.743491, , , 0.000000, , , 
24632, , 9.663657, -0.983048, -1.790168, 0.368587, -0.354475, 0.051176, 0.072221, -0.220464, -0.126305, -0.718994, 0.522461, 0.166748, 0.096650, -0.009885, -0.017799, 0.999999, 0.000361, -0.001102, -0.000632, -137.162784, -78.044224, 39.431388, , , 0.000000, , , 
24633, , 9.569574, -1.029735, -1.697052, 0.315431, -0.249517, -0.047684, 0.028869, -0.211530, -0.100872, -0.723389, 0.522461, 0.173096, 0.095708, -0.010343, -0.016871, 0.999999, 0.000144, -0.001058, -0.000504, -137.622550, -77.988893, 39.928446, , , 0.000000, , , 
24634, , 9.626528, -1.146247, -1.658396, 0.209121, -0.165666, 0.019046, -0.048375, -0.200415, -0.078078, -0.718994, 0.518066, 0.177490, 0.096277, -0.011504, -0.016485, 0.999999, -0.000242, -0.001002, -0.000390, -138.182168, -77.932508, 40.470160, , , 0.000000, , , 
24635, , 9.456863, -1.375109, -1.721353, -0.053024, -0.196703, -0.104716, -0.110641, -0.194074, -0.081739, -0.729980, 0.520264, 0.173340, 0.094580, -0.013799, -0.017114, 0.999999, -0.000553, -0.000970, -0.000409, -138.696274, -77.869114, 40.932687, , , 0.000000, , , 
24636, , 9.608929, -1.618105, -1.264300, -0.217324, 0.329448, 0.005277, -0.108233, -0.202005, -0.075536, -0.723389, 0.518066, 0.181641, 0.096096, -0.016224, -0.012537, 0.999999, -0.000541, -0.001010, -0.000378, -139.276653, -77.808883, 41.460864, , , 0.000000, , , 
24637, , 9.865958, -1.657732, -1.595709, -0.259816, 0.067093, 0.314476, -0.066483, -0.195585, -0.070625, -0.729980, 0.518066, 0.183838, 0.098669, -0.016617, -0.015855, 0.999999, -0.000332, -0.000978, -0.000353, -139.735070, -77.746975, 41.897665, , , 0.000000, , , 
24638, , 9.968520, -1.174503, -1.685485, 0.213168, -0.055587, 0.362928, -0.035311, -0.186146, -0.080405, -0.729980, 0.513672, 0.181885, 0.099696, -0.011788, -0.016760, 0.999999, -0.000177, -0.000931, -0.000402, -140.245916, -77.693552, 42.397759, , , 0.000000, , , 
24639, , 10.001947, -1.359280, -1.673872, 0.034023, 0.006194, 0.418989, -0.005759, -0.174628, -0.074191, -0.725586, 0.520264, 0.181641, 0.100029, -0.013630, -0.016651, 1.000000, -0.000029, -0.000873, -0.000371, -140.665665, -77.644327, 42.829352, , , 0.000000, , , 
24640, , 9.757663, -1.030567, -1.956930, 0.278435, -0.336957, 0.182939, 0.013711, -0.149086, -0.064144, -0.723389, 0.515869, 0.187988, 0.097588, -0.010336, -0.019497, 1.000000, 0.000069, -0.000745, -0.000321, -141.046345, -77.599920, 43.225181, , , 0.000000, , , 
24641, , 9.641916, -1.109258, -1.919214, 0.186705, -0.292146, 0.074686, 0.006320, -0.124364, -0.057567, -0.723389, 0.520264, 0.187988, 0.096428, -0.011120, -0.019133, 1.000000, 0.000032, -0.000622, -0.000288, -141.303606, -77.556733, 43.497759, , , 0.000000, , , 
24642, , 9.629484, -1.064052, -1.933102, 0.224325, -0.302695, 0.059197, 0.009980, -0.091663, -0.039049, -0.725342, 0.511475, 0.184082, 0.096302, -0.010658, -0.019287, 1.000000, 0.000050, -0.000458, -0.000195, -141.537451, -77.528195, 43.741215, , , 0.000000, , , 
24643, , 9.502604, -0.739964, -2.074187, 0.504792, -0.499256, -0.084111, -0.062501, -0.063985, -0.018177, -0.718750, 0.515869, 0.186035, 0.095032, -0.007415, -0.020709, 1.000000, -0.000313, -0.000320, -0.000091, -141.664946, -77.499936, 43.839867, , , 0.000000, , , 
24644, , 9.631755, -1.047214, -1.999971, 0.231321, -0.355813, 0.070993, -0.104070, -0.039331, 0.003265, -0.723389, 0.513672, 0.190186, 0.096322, -0.010481, -0.019975, 1.000000, -0.000520, -0.000197, 0.000016, -141.792330, -77.479611, 43.907457, , , 0.000000, , , 
24645, , 9.684798, -1.201674, -1.931170, 0.098895, -0.254104, 0.131879, -0.079345, -0.013513, 0.020292, -0.734375, 0.513672, 0.188232, 0.096851, -0.012015, -0.019300, 1.000000, -0.000397, -0.000068, 0.000101, -141.776809, -77.456833, 43.847987, , , 0.000000, , , 
24646, , 9.685216, -1.251557, -1.987162, 0.044697, -0.300096, 0.148566, -0.033503, 0.007147, 0.033791, -0.723389, 0.515869, 0.187988, 0.096854, -0.012503, -0.019873, 1.000000, -0.000168, 0.000036, 0.000169, -141.727163, -77.446529, 43.775704, , , 0.000000, , , 
24647, , 9.766659, -1.234599, -1.828430, 0.097549, -0.138609, 0.198620, 0.019389, 0.037573, 0.039376, -0.725586, 0.513672, 0.188232, 0.097666, -0.012325, -0.018304, 1.000000, 0.000097, 0.000188, 0.000197, -141.549761, -77.450453, 43.610480, , , 0.000000, , , 
24648, , 9.769270, -1.075462, -1.967122, 0.240507, -0.303074, 0.203056, 0.018304, 0.069814, 0.053046, -0.725586, 0.515869, 0.186035, 0.097689, -0.010727, -0.019706, 1.000000, 0.000092, 0.000349, 0.000265, -141.330874, -77.461293, 43.395295, , , 0.000000, , , 
24649, , 9.724568, -1.171805, -1.848518, 0.159507, -0.188164, 0.152076, 0.019021, 0.074056, 0.060782, -0.723389, 0.520264, 0.185791, 0.097242, -0.011687, -0.018522, 1.000000, 0.000095, 0.000370, 0.000304, -141.049676, -77.471301, 43.122724, , , 0.000000, , , 
24650, , 9.745760, -1.431351, -1.780223, -0.077458, -0.088417, 0.196507, 0.004637, 0.090662, 0.073247, -0.723389, 0.513672, 0.190186, 0.097455, -0.014277, -0.017847, 1.000000, 0.000023, 0.000453, 0.000366, -140.762978, -77.483687, 42.830139, , , 0.000000, , , 
24651, , 9.479265, -1.148756, -1.844015, 0.155101, -0.242500, -0.091905, -0.059309, 0.123706, 0.062698, -0.725586, 0.515869, 0.186035, 0.094785, -0.011463, -0.018495, 1.000000, -0.000297, 0.000619, 0.000313, -140.444184, -77.507885, 42.472893, , , 0.000000, , , 
24652, , 9.427551, -1.541619, -1.763236, -0.225068, -0.123903, -0.101957, -0.087705, 0.133267, 0.059357, -0.723145, 0.513672, 0.186035, 0.094268, -0.015396, -0.017688, 1.000000, -0.000439, 0.000666, 0.000297, -140.165451, -77.543429, 42.134385, , , 0.000000, , , 
24653, , 9.471551, -1.440894, -1.681010, -0.106069, -0.064031, -0.086594, -0.060388, 0.127701, 0.057954, -0.721191, 0.518066, 0.183838, 0.094709, -0.014387, -0.016866, 1.000000, -0.000302, 0.000639, 0.000290, -139.863130, -77.576339, 41.791139, , , 0.000000, , , 
24654, , 9.602815, -1.494781, -1.623648, -0.128157, 0.007389, 0.039630, -0.049151, 0.129885, 0.047653, -0.723389, 0.518066, 0.181641, 0.096021, -0.014929, -0.016295, 1.000000, -0.000246, 0.000649, 0.000238, -139.587435, -77.614004, 41.478493, , , 0.000000, , , 
24655, , 9.678700, -1.516006, -1.530481, -0.121232, 0.099803, 0.101606, -0.022189, 0.122159, 0.042392, -0.721191, 0.518066, 0.187988, 0.096781, -0.015141, -0.015362, 1.000000, -0.000111, 0.000611, 0.000212, -139.267298, -77.646609, 41.143488, , , 0.000000, , , 
24656, , 9.580353, -1.480183, -1.609592, -0.110336, -0.008294, 0.013433, 0.009308, 0.116102, 0.034102, -0.725586, 0.515869, 0.183838, 0.095797, -0.014785, -0.016152, 1.000000, 0.000047, 0.000581, 0.000171, -139.004504, -77.682671, 40.878492, , , 0.000000, , , 
24657, , 9.445999, -1.574982, -1.574929, -0.218125, 0.010593, -0.110102, 0.030380, 0.110110, 0.021137, -0.721191, 0.522461, 0.181641, 0.094453, -0.015737, -0.015804, 1.000000, 0.000152, 0.000551, 0.000106, -138.755457, -77.714566, 40.643216, , , 0.000000, , , 
24658, , 9.422192, -1.376810, -1.534875, -0.022192, 0.005990, -0.167553, 0.028021, 0.107187, 0.019925, -0.725586, 0.520264, 0.183838, 0.094215, -0.013757, -0.015401, 1.000000, 0.000140, 0.000536, 0.000100, -138.522379, -77.751632, 40.419696, , , 0.000000, , , 
24659, , 9.415409, -1.344486, -1.619702, -0.000670, -0.092399, -0.165280, -0.022509, 0.098188, 0.005944, -0.725586, 0.522461, 0.181641, 0.094147, -0.013444, -0.016242, 1.000000, -0.000113, 0.000491, 0.000030, -138.320673, -77.780593, 40.206653, , , 0.000000, , , 
24660, , 9.596593, -1.438571, -1.546179, -0.055155, 0.010047, 0.013381, -0.036476, 0.096589, 0.008754, -0.723145, 0.513672, 0.177490, 0.095959, -0.014384, -0.015506, 1.000000, -0.000182, 0.000483, 0.000044, -138.162497, -77.817000, 40.022065, , , 0.000000, , , 
24661, , 9.541063, -1.294015, -1.557445, 0.075215, -0.038826, -0.059492, -0.068030, 0.090016, 0.002731, -0.727783, 0.515869, 0.179688, 0.095404, -0.012944, -0.015613, 1.000000, -0.000340, 0.000450, 0.000014, -138.014621, -77.851249, 39.834231, , , 0.000000, , , 
24662, , 9.543918, -1.583622, -1.534002, -0.206618, 0.021694, -0.019617, -0.051788, 0.081004, -0.001505, -0.727783, 0.522461, 0.179443, 0.095433, -0.015841, -0.015375, 1.000000, -0.000259, 0.000405, -0.000008, -137.911102, -77.884767, 39.696672, , , 0.000000, , , 
24663, , 9.658656, -1.603076, -1.430564, -0.195365, 0.134426, 0.079216, -0.026296, 0.073232, -0.013416, -0.723389, 0.522461, 0.179443, 0.096580, -0.016039, -0.014339, 1.000000, -0.000131, 0.000366, -0.000067, -137.803530, -77.919105, 39.574614, , , 0.000000, , , 
24664, , 9.657420, -1.376941, -1.532477, 0.008952, -0.006440, 0.062033, -0.019971, 0.080962, -0.027333, -0.721191, 0.520264, 0.181641, 0.096566, -0.013784, -0.015362, 1.000000, -0.000100, 0.000405, -0.000137, -137.731465, -77.962460, 39.487945, , , 0.000000, , , 
24665, , 9.579852, -1.367690, -1.554510, 0.000972, -0.045733, -0.011741, -0.005516, 0.070666, -0.032603, -0.727783, 0.520264, 0.177490, 0.095791, -0.013693, -0.015579, 1.000000, -0.000028, 0.000353, -0.000163, -137.641067, -77.990904, 39.400370, , , 0.000000, , , 
24666, , 9.525988, -1.421457, -1.532106, -0.061535, -0.028606, -0.060369, 0.012282, 0.068875, -0.034540, -0.725586, 0.518066, 0.173340, 0.095252, -0.014230, -0.015355, 1.000000, 0.000061, 0.000344, -0.000173, -137.585394, -78.031794, 39.349422, , , 0.000000, , , 
24667, , 9.505151, -1.467073, -1.515918, -0.110536, -0.015619, -0.076890, 0.027233, 0.064131, -0.039962, -0.723145, 0.513672, 0.173340, 0.095044, -0.014688, -0.015192, 1.000000, 0.000136, 0.000321, -0.000200, -137.491745, -78.072511, 39.274471, , , 0.000000, , , 
24668, , 9.515641, -1.456477, -1.450666, -0.094169, 0.042274, -0.078083, 0.063321, 0.060536, -0.041581, -0.727783, 0.513672, 0.175537, 0.095149, -0.014580, -0.014540, 1.000000, 0.000317, 0.000303, -0.000208, -137.434918, -78.112586, 39.252313, , , 0.000000, , , 
24669, , 9.572461, -1.396426, -1.459839, -0.031559, 0.024934, -0.029461, 0.085838, 0.052776, -0.045734, -0.732178, 0.518066, 0.173340, 0.095718, -0.013980, -0.014630, 1.000000, 0.000429, 0.000264, -0.000229, -137.365500, -78.154566, 39.231097, , , 0.000000, , , 
24670, , 9.715639, -1.379398, -1.547648, -0.007309, -0.050979, 0.121543, 0.117218, 0.055235, -0.045060, -0.727539, 0.511475, 0.173340, 0.097149, -0.013807, -0.015511, 1.000000, 0.000586, 0.000276, -0.000225, -137.293761, -78.193782, 39.225301, , , 0.000000, , , 
24671, , 9.804474, -1.290374, -1.635734, 0.079733, -0.147176, 0.209307, 0.162817, 0.060624, -0.031639, -0.727783, 0.520264, 0.173340, 0.098038, -0.012906, -0.016398, 1.000000, 0.000814, 0.000303, -0.000158, -137.139572, -78.235199, 39.162294, , , 0.000000, , , 
24672, , 9.832017, -1.181864, -1.634585, 0.189156, -0.167261, 0.220929, 0.162243, 0.082937, -0.022309, -0.723389, 0.520264, 0.173340, 0.098312, -0.011816, -0.016396, 1.000000, 0.000811, 0.000415, -0.000112, -136.942898, -78.277189, 39.055279, , , 0.000000, , , 
24673, , 9.689996, -1.151896, -1.678459, 0.191870, -0.242232, 0.084010, 0.093379, 0.087470, -0.011069, -0.723389, 0.515869, 0.166992, 0.096892, -0.011516, -0.016832, 1.000000, 0.000467, 0.000437, -0.000055, -136.716495, -78.306061, 38.887759, , , 0.000000, , , 
24674, , 9.703416, -1.147440, -1.497853, 0.219380, -0.073805, 0.069766, 0.025243, 0.108227, -0.008535, -0.734375, 0.511475, 0.166992, 0.097026, -0.011477, -0.015032, 1.000000, 0.000126, 0.000541, -0.000043, -136.519807, -78.352931, 38.700656, , , 0.000000, , , 
24675, , 9.468147, -1.348372, -1.577504, -0.028101, -0.164071, -0.121211, -0.055537, 0.121345, -0.021226, -0.725586, 0.518066, 0.173340, 0.094670, -0.013498, -0.015829, 1.000000, -0.000278, 0.000607, -0.000106, -136.346135, -78.416988, 38.488839, , , 0.000000, , , 
24676, , 9.433875, -1.587999, -1.397450, -0.249947, 0.033392, -0.147854, -0.048539, 0.116670, -0.020128, -0.725342, 0.511719, 0.160645, 0.094329, -0.015893, -0.014026, 1.000000, -0.000243, 0.000583, -0.000101, -136.195313, -78.471770, 38.305522, , , 0.000000, , , 
24677, , 9.389636, -1.436951, -1.238168, -0.092206, 0.152660, -0.235040, -0.042816, 0.104294, -0.024982, -0.723389, 0.515869, 0.171143, 0.093888, -0.014384, -0.012428, 1.000000, -0.000214, 0.000521, -0.000125, -136.046221, -78.521471, 38.131567, , , 0.000000, , , 
24678, , 9.419441, -1.373575, -1.292873, -0.036806, 0.086059, -0.206683, -0.061304, 0.082548, -0.031199, -0.727539, 0.511475, 0.169189, 0.094187, -0.013754, -0.012963, 1.000000, -0.000307, 0.000413, -0.000156, -135.989120, -78.566421, 38.036522, , , 0.000000, , , 
24679, , 9.484076, -1.502228, -1.319201, -0.160193, 0.082718, -0.121858, -0.048071, 0.058999, -0.039917, -0.732178, 0.513672, 0.166992, 0.094834, -0.015044, -0.013216, 1.000000, -0.000240, 0.000295, -0.000200, -135.991816, -78.598587, 38.013811, , , 0.000000, , , 
24680, , 9.636267, -1.475922, -1.349212, -0.119532, 0.064314, 0.027939, 0.006359, 0.041748, -0.045674, -0.732178, 0.513672, 0.171143, 0.096356, -0.014781, -0.013513, 1.000000, 0.000032, 0.000209, -0.000228, -136.005461, -78.632439, 38.030515, , , 0.000000, , , 
24681, , 9.741784, -1.346892, -1.396023, 0.012660, 0.008406, 0.120345, 0.064062, 0.045051, -0.043311, -0.729980, 0.520264, 0.171143, 0.097412, -0.013486, -0.013986, 1.000000, 0.000320, 0.000225, -0.000217, -135.979059, -78.667200, 38.039984, , , 0.000000, , , 
24682, , 9.804472, -0.903875, -1.548485, 0.433872, -0.203534, 0.142854, 0.096992, 0.051833, -0.030248, -0.727783, 0.513672, 0.171143, 0.098039, -0.009046, -0.015515, 1.000000, 0.000485, 0.000259, -0.000151, -135.888814, -78.699073, 38.003702, , , 0.000000, , , 
24683, , 9.827792, -0.854092, -1.551895, 0.485746, -0.215587, 0.159319, 0.027014, 0.063468, -0.007118, -0.732178, 0.518066, 0.164795, 0.098273, -0.008542, -0.015551, 1.000000, 0.000135, 0.000317, -0.000036, -135.771186, -78.714022, 37.906987, , , 0.000000, , , 
24684, , 9.715414, -1.095324, -1.608789, 0.223943, -0.256453, 0.089902, -0.029926, 0.076811, 0.008861, -0.725342, 0.513672, 0.164795, 0.097148, -0.010951, -0.016124, 1.000000, -0.000150, 0.000384, 0.000044, -135.622176, -78.740376, 37.736654, , , 0.000000, , , 
24685, , 9.678482, -1.227479, -1.487041, 0.105386, -0.129803, 0.054585, -0.017433, 0.088353, 0.023739, -0.727539, 0.511475, 0.162842, 0.096780, -0.012265, -0.014912, 1.000000, -0.000087, 0.000442, 0.000119, -135.386554, -78.760748, 37.491987, , , 0.000000, , , 
24686, , 9.595728, -1.346704, -1.400360, -0.012464, -0.045875, -0.022368, -0.028592, 0.100847, 0.025116, -0.727783, 0.518066, 0.164795, 0.095952, -0.013457, -0.014050, 1.000000, -0.000143, 0.000504, 0.000126, -135.152594, -78.790055, 37.235897, , , 0.000000, , , 
24687, , 9.449431, -1.508412, -1.430674, -0.195956, -0.078719, -0.139566, -0.008059, 0.103443, 0.018965, -0.727783, 0.515869, 0.162842, 0.094488, -0.015076, -0.014355, 1.000000, -0.000040, 0.000517, 0.000095, -134.894717, -78.818578, 36.973059, , , 0.000000, , , 
24688, , 9.397815, -1.418106, -1.385482, -0.109385, -0.062946, -0.208856, 0.013112, 0.098291, 0.015814, -0.734375, 0.515869, 0.162842, 0.093972, -0.014173, -0.013902, 1.000000, 0.000066, 0.000491, 0.000079, -134.658276, -78.850182, 36.738883, , , 0.000000, , , 
24689, , 9.535928, -1.174977, -1.487457, 0.138193, -0.192445, -0.093075, 0.006421, 0.105205, 0.018629, -0.729736, 0.511475, 0.162842, 0.095353, -0.011740, -0.014925, 1.000000, 0.000032, 0.000526, 0.000093, -134.390331, -78.881246, 36.472534, , , 0.000000, , , 
24690, , 9.791993, -1.182721, -1.469920, 0.173337, -0.155222, 0.156689, -0.002600, 0.111682, 0.027696, -0.732178, 0.518066, 0.158447, 0.097913, -0.011814, -0.014754, 1.000000, -0.000013, 0.000558, 0.000138, -134.107679, -78.912899, 36.182171, , , 0.000000, , , 
24691, , 9.869840, -1.296844, -1.595397, 0.059817, -0.265690, 0.265341, 0.033504, 0.130952, 0.043922, -0.734375, 0.515869, 0.160645, 0.098691, -0.012944, -0.016021, 1.000000, 0.000168, 0.000655, 0.000220, -133.718769, -78.945639, 35.806216, , , 0.000000, , , 
24692, , 9.886183, -1.261979, -1.648503, 0.093793, -0.336749, 0.283081, 0.097731, 0.157946, 0.060556, -0.729980, 0.515869, 0.158447, 0.098853, -0.012582, -0.016569, 1.000000, 0.000489, 0.000790, 0.000303, -133.209456, -78.981100, 35.343582, , , 0.000000, , , 
24693, , 9.785492, -1.134903, -1.614376, 0.212797, -0.351986, 0.161321, 0.129694, 0.190702, 0.076951, -0.738770, 0.518066, 0.160645, 0.097844, -0.011301, -0.016244, 0.999999, 0.000648, 0.000954, 0.000385, -132.575784, -79.021457, 34.773953, , , 0.000000, , , 
24694, , 9.699439, -0.990745, -1.572329, 0.353309, -0.362783, 0.050194, 0.133323, 0.212415, 0.097031, -0.727539, 0.513916, 0.150146, 0.096982, -0.009850, -0.015833, 0.999999, 0.000667, 0.001062, 0.000485, -131.846890, -79.060467, 34.108569, , , 0.000000, , , 
24695, , 9.725738, -1.046515, -1.465659, 0.324187, -0.271129, 0.069350, 0.110237, 0.229519, 0.113491, -0.729980, 0.515869, 0.150146, 0.097246, -0.010402, -0.014774, 0.999999, 0.000551, 0.001148, 0.000567, -131.065644, -79.100578, 33.373862, , , 0.000000, , , 
24696, , 9.721181, -1.271153, -1.351013, 0.127101, -0.152483, 0.081904, 0.081927, 0.244525, 0.124721, -0.729980, 0.518066, 0.156250, 0.097203, -0.012645, -0.013634, 0.999999, 0.000410, 0.001223, 0.000624, -130.229707, -79.136096, 32.569669, , , 0.000000, , , 
24697, , 9.756788, -1.366510, -1.348462, 0.049424, -0.159409, 0.129781, 0.107430, 0.262024, 0.132560, -0.729980, 0.520264, 0.149902, 0.097559, -0.013593, -0.013620, 0.999999, 0.000537, 0.001310, 0.000663, -129.347822, -79.171585, 31.732741, , , 0.000000, , , 
24698, , 9.675937, -1.345273, -1.336155, 0.069532, -0.187338, 0.045245, 0.108008, 0.276199, 0.137778, -0.729980, 0.515869, 0.143799, 0.096750, -0.013379, -0.013502, 0.999999, 0.000540, 0.001381, 0.000689, -128.387665, -79.207933, 30.817486, , , 0.000000, , , 
24699, , 9.748228, -1.376601, -1.222015, 0.074181, -0.093601, 0.107088, 0.097821, 0.290431, 0.135812, -0.727783, 0.524658, 0.141357, 0.097474, -0.013694, -0.012368, 0.999999, 0.000489, 0.001452, 0.000679, -127.418998, -79.250514, 29.884255, , , 0.000000, , , 
24700, , 9.846205, -1.318931, -1.151944, 0.165623, -0.055270, 0.186499, 0.113717, 0.302034, 0.139859, -0.732422, 0.524658, 0.143555, 0.098454, -0.013114, -0.011676, 0.999998, 0.000569, 0.001510, 0.000699, -126.376409, -79.288897, 28.888670, , , 0.000000, , , 
24701, , 9.848170, -1.424226, -1.137493, 0.076091, -0.059607, 0.202267, 0.131475, 0.319359, 0.150580, -0.730225, 0.526855, 0.135010, 0.098474, -0.014161, -0.011542, 0.999998, 0.000657, 0.001597, 0.000753, -125.269059, -79.322035, 27.840133, , , 0.000000, , , 
24702, , 9.804812, -1.536232, -1.195821, -0.035221, -0.142125, 0.182450, 0.183928, 0.339673, 0.161109, -0.721191, 0.529053, 0.132812, 0.098040, -0.015272, -0.012139, 0.999998, 0.000920, 0.001698, 0.000806, -124.041473, -79.355368, 26.697476, , , 0.000000, , , 
24703, , 9.718854, -1.507745, -1.197336, -0.006998, -0.192817, 0.093152, 0.221019, 0.344977, 0.170549, -0.727783, 0.524658, 0.130859, 0.097180, -0.014981, -0.012158, 0.999998, 0.001105, 0.001725, 0.000853, -122.746569, -79.375924, 25.515120, , , 0.000000, , , 
24704, , 9.752232, -1.468997, -1.222747, 0.048494, -0.259379, 0.121562, 0.219349, 0.347526, 0.183348, -0.721436, 0.531250, 0.126465, 0.097514, -0.014587, -0.012413, 0.999997, 0.001097, 0.001738, 0.000917, -121.430337, -79.391315, 24.303127, , , 0.000000, , , 
24705, , 9.662709, -1.393109, -1.170047, 0.129986, -0.262999, 0.015409, 0.214564, 0.364910, 0.192691, -0.723633, 0.531250, 0.118164, 0.096619, -0.013825, -0.011892, 0.999997, 0.001073, 0.001825, 0.000963, -120.071309, -79.399251, 23.047656, , , 0.000000, , , 
24706, , 9.694218, -1.498108, -1.040180, 0.063813, -0.160240, 0.050083, 0.232138, 0.380507, 0.199907, -0.728027, 0.535645, 0.122314, 0.096937, -0.014872, -0.010604, 0.999997, 0.001161, 0.001903, 0.001000, -118.630140, -79.404932, 21.716097, , , 0.000000, , , 
24707, , 9.766329, -1.555530, -1.060738, 0.035080, -0.211680, 0.131144, 0.252881, 0.394894, 0.207547, -0.732422, 0.535645, 0.111572, 0.097658, -0.015440, -0.010820, 0.999997, 0.001264, 0.001974, 0.001038, -117.133631, -79.402102, 20.343543, , , 0.000000, , , 
24708, , 9.825280, -1.484126, -0.955959, 0.144693, -0.158675, 0.167608, 0.271853, 0.412012, 0.213797, -0.723633, 0.535645, 0.109619, 0.098249, -0.014723, -0.009782, 0.999996, 0.001359, 0.002060, 0.001069, -115.564906, -79.395816, 18.905369, , , 0.000000, , , 
24709, , 9.754028, -1.531206, -0.961672, 0.102851, -0.210536, 0.104739, 0.259787, 0.430175, 0.214134, -0.725830, 0.537842, 0.105225, 0.097536, -0.015195, -0.009846, 0.999996, 0.001299, 0.002151, 0.001071, -113.954518, -79.391109, 17.414604, , , 0.000000, , , 
24710, , 9.808657, -1.519145, -1.157137, 0.121888, -0.452468, 0.169130, 0.303934, 0.452665, 0.221897, -0.717041, 0.544434, 0.096680, 0.098077, -0.015065, -0.011816, 0.999996, 0.001520, 0.002263, 0.001109, -112.249598, -79.374743, 15.856502, , , 0.000000, , , 
24711, , 9.841304, -1.367038, -1.137473, 0.298440, -0.501901, 0.170931, 0.330030, 0.486234, 0.219956, -0.728271, 0.546631, 0.090332, 0.098400, -0.013543, -0.011636, 0.999995, 0.001650, 0.002431, 0.001100, -110.437703, -79.354214, 14.210061, , , 0.000000, , , 
24712, , 9.898133, -1.508020, -0.956439, 0.208916, -0.360743, 0.236582, 0.372339, 0.518616, 0.233853, -0.728027, 0.540039, 0.088379, 0.098974, -0.014946, -0.009849, 0.999994, 0.001862, 0.002593, 0.001169, -108.506869, -79.325817, 12.461775, , , 0.000000, , , 
24713, , 9.884431, -1.314670, -0.954713, 0.415781, -0.442041, 0.185971, 0.379747, 0.551916, 0.260826, -0.723877, 0.544434, 0.083984, 0.098834, -0.012999, -0.009845, 0.999994, 0.001899, 0.002760, 0.001304, -106.450147, -79.285948, 10.582553, , , 0.000000, , , 
24714, , 9.822120, -1.087227, -0.844263, 0.660486, -0.420328, 0.074456, 0.295996, 0.571914, 0.275385, -0.719482, 0.548828, 0.079590, 0.098211, -0.010724, -0.008739, 0.999994, 0.001480, 0.002860, 0.001377, -104.403388, -79.220032, 8.671259, , , 0.000000, , , 
24715, , 9.782178, -1.441106, -0.572829, 0.355270, -0.177198, 0.083672, 0.267219, 0.587511, 0.285996, -0.717285, 0.551025, 0.075439, 0.097825, -0.014263, -0.006035, 0.999994, 0.001336, 0.002938, 0.001430, -102.376675, -79.141330, 6.760863, , , 0.000000, , , 
24716, , 9.653893, -1.745967, -0.344030, 0.077953, 0.013905, 0.003511, 0.298927, 0.591917, 0.289794, -0.717041, 0.546631, 0.071289, 0.096553, -0.017314, -0.003752, 0.999993, 0.001495, 0.002960, 0.001449, -100.318755, -79.044399, 4.838888, , , 0.000000, , , 
24717, , 9.517769, -1.848326, -0.130789, -0.006272, 0.171607, -0.117767, 0.351402, 0.578128, 0.284828, -0.719482, 0.555420, 0.069092, 0.095200, -0.018345, -0.001615, 0.999993, 0.001757, 0.002891, 0.001424, -98.366432, -78.940517, 3.051992, , , 0.000000, , , 
24718, , 9.382129, -2.068382, 0.052375, -0.210068, 0.310439, -0.212456, 0.383696, 0.558620, 0.257503, -0.715088, 0.555420, 0.058350, 0.093849, -0.020564, 0.000222, 0.999993, 0.001918, 0.002793, 0.001288, -96.442654, -78.834711, 1.314855, , , 0.000000, , , 
24719, , 9.202561, -2.413712, 0.047014, -0.565692, 0.276500, -0.319608, 0.420538, 0.530171, 0.224469, -0.715088, 0.557617, 0.056152, 0.092053, -0.024034, 0.000176, 0.999994, 0.002103, 0.002651, 0.001122, -94.693367, -78.739272, -0.226017, , , 0.000000, , , 
24720, , 9.024740, -2.679182, 0.289056, -0.824850, 0.482160, -0.442823, 0.409623, 0.494927, 0.196840, -0.710693, 0.557617, 0.047852, 0.090280, -0.026709, 0.002612, 0.999994, 0.002048, 0.002475, 0.000984, -93.015010, -78.645178, -1.698931, , , 0.000000, , , 
24721, , 9.159360, -2.477593, 0.122503, -0.601791, 0.247479, -0.345707, 0.356668, 0.448277, 0.193500, -0.712891, 0.559814, 0.041504, 0.091620, -0.024689, 0.000976, 0.999995, 0.001783, 0.002241, 0.000967, -91.594586, -78.547329, -2.941869, , , 0.000000, , , 
24722, , 9.837817, -1.925623, -0.261827, 0.055457, -0.236282, 0.212286, 0.340494, 0.436832, 0.162719, -0.708496, 0.562012, 0.032959, 0.098388, -0.019171, -0.002866, 0.999996, 0.001702, 0.002184, 0.000814, -90.171622, -78.457439, -4.195596, , , 0.000000, , , 
24723, , 9.923578, -1.351635, -0.262561, 0.645660, -0.330479, 0.179657, 0.262866, 0.466046, 0.155456, -0.710693, 0.564209, 0.030762, 0.099240, -0.013436, -0.002875, 0.999996, 0.001314, 0.002330, 0.000777, -88.762616, -78.367890, -5.481305, , , 0.000000, , , 
24724, , 9.653321, -1.265585, 0.023617, 0.708502, -0.095563, -0.103024, 0.089066, 0.483363, 0.150796, -0.708496, 0.564209, 0.030762, 0.096543, -0.012583, -0.000003, 0.999997, 0.000445, 0.002417, 0.000754, -87.396229, -78.271823, -6.825188, , , 0.000000, , , 
24725, , 9.380131, -1.992060, 0.330380, -0.020887, 0.224537, -0.220332, -0.111392, 0.476671, 0.171100, -0.708740, 0.568604, 0.026367, 0.093826, -0.019839, 0.003091, 0.999997, -0.000557, 0.002383, 0.000855, -86.240664, -78.160998, -8.071896, , , 0.000000, , , 
24726, , 9.429834, -2.327080, 0.415709, -0.315457, 0.290534, -0.100540, -0.140844, 0.449569, 0.203605, -0.715332, 0.568604, 0.022217, 0.094331, -0.023172, 0.003961, 0.999997, -0.000704, 0.002248, 0.001018, -85.154395, -78.024990, -9.265256, , , 0.000000, , , 
24727, , 9.525342, -2.317482, 0.509430, -0.262229, 0.341638, -0.005713, -0.043272, 0.413360, 0.198358, -0.706299, 0.564453, 0.022217, 0.095287, -0.023079, 0.004902, 0.999997, -0.000216, 0.002067, 0.000992, -84.172578, -77.893846, -10.297895, , , 0.000000, , , 
24728, , 9.368391, -2.387508, 0.486278, -0.349659, 0.290936, -0.143336, 0.152480, 0.355643, 0.169618, -0.710693, 0.562256, 0.018066, 0.093713, -0.023799, 0.004678, 0.999998, 0.000762, 0.001778, 0.000848, -83.204981, -77.774579, -11.199102, , , 0.000000, , , 
24729, , 9.058847, -2.807738, 0.431722, -0.817388, 0.243762, -0.357276, 0.185861, 0.348072, 0.160033, -0.704102, 0.564453, 0.018066, 0.090618, -0.028009, 0.004133, 0.999998, 0.000929, 0.001740, 0.000800, -82.286783, -77.671425, -12.038404, , , 0.000000, , , 
24730, , 9.065238, -2.736073, 0.103333, -0.758972, -0.125201, -0.374283, 0.156791, 0.331186, 0.178902, -0.708496, 0.566650, 0.011719, 0.090678, -0.027280, 0.000862, 0.999998, 0.000784, 0.001656, 0.000895, -81.417881, -77.542917, -12.836855, , , 0.000000, , , 
24731, , 10.150131, -1.580895, 0.141758, 0.610571, -0.253587, 0.439494, 0.239050, 0.336873, 0.173593, -0.704102, 0.568848, 0.007324, 0.101517, -0.015722, 0.001228, 0.999997, 0.001195, 0.001684, 0.000868, -80.545258, -77.426848, -13.598933, , , 0.000000, , , 
24732, , 10.241475, -1.101697, 0.037905, 1.102071, -0.434613, 0.419584, 0.139122, 0.399489, 0.144324, -0.708740, 0.575195, 0.007324, 0.102423, -0.010943, 0.000167, 0.999998, 0.000696, 0.001997, 0.000722, -79.533265, -77.305789, -14.555193, , , 0.000000, , , 
24733, , 9.539849, -1.657116, 0.252390, 0.438083, -0.185440, -0.138391, -0.009878, 0.413032, 0.141970, -0.702148, 0.573242, -0.003174, 0.095415, -0.016503, 0.002328, 0.999998, -0.000049, 0.002065, 0.000710, -78.631336, -77.190936, -15.492915, , , 0.000000, , , 
24734, , 9.200392, -2.415787, 0.664369, -0.329964, 0.257292, -0.286438, -0.084549, 0.392762, 0.147251, -0.697754, 0.575439, 0.003174, 0.092034, -0.024087, 0.006473, 0.999998, -0.000423, 0.001964, 0.000736, -77.800941, -77.062474, -16.395298, , , 0.000000, , , 
24735, , 9.359122, -2.943865, 0.497694, -0.811096, 0.080912, -0.022761, 0.067867, 0.383140, 0.151216, -0.702148, 0.575439, -0.001221, 0.093623, -0.029370, 0.004788, 0.999998, 0.000339, 0.001916, 0.000756, -76.960663, -76.934240, -17.220017, , , 0.000000, , , 
24736, , 9.574976, -2.691184, 0.661277, -0.495552, 0.172024, 0.141437, 0.253930, 0.371096, 0.128571, -0.702148, 0.577393, -0.005371, 0.095779, -0.026858, 0.006401, 0.999997, 0.001270, 0.001855, 0.000643, -76.012082, -76.813088, -18.045555, , , 0.000000, , , 
24737, , 9.650882, -2.315199, 0.806489, -0.095764, 0.247463, 0.141183, 0.413058, 0.330948, 0.115296, -0.704346, 0.573242, -0.009521, 0.096535, -0.023113, 0.007857, 0.999996, 0.002065, 0.001655, 0.000576, -75.120836, -76.710504, -18.724784, , , 0.000000, , , 
24738, , 9.625095, -1.825979, 0.603026, 0.365487, -0.021518, -0.004215, 0.449757, 0.301115, 0.107857, -0.697754, 0.577637, -0.015869, 0.096270, -0.018221, 0.005844, 0.999996, 0.002249, 0.001506, 0.000539, -74.240054, -76.605584, -19.366100, , , 0.000000, , , 
24739, , 9.667455, -1.556186, 0.669441, 0.646072, -0.006410, -0.019220, 0.389943, 0.274165, 0.098282, -0.702148, 0.575439, -0.015869, 0.096691, -0.015527, 0.006532, 0.999997, 0.001950, 0.001371, 0.000491, -73.494445, -76.519802, -19.910307, , , 0.000000, , , 
24740, , 10.058842, -1.493493, 0.262498, 0.772398, -0.478926, 0.319127, 0.302395, 0.287878, 0.106674, -0.697754, 0.577637, -0.024414, 0.100600, -0.014885, 0.002458, 0.999998, 0.001512, 0.001439, 0.000533, -72.748805, -76.413801, -20.500017, , , 0.000000, , , 
24741, , 9.968339, -1.355955, -0.006612, 0.876492, -0.779490, 0.178832, 0.178567, 0.353938, 0.124197, -0.697510, 0.575439, -0.028564, 0.099691, -0.013497, -0.000255, 0.999998, 0.000893, 0.001770, 0.000621, -71.985356, -76.297746, -21.188113, , , 0.000000, , , 
24742, , 9.478229, -1.877421, 0.271395, 0.288565, -0.475702, -0.162533, 0.013457, 0.410352, 0.129266, -0.693359, 0.579834, -0.020264, 0.094800, -0.018713, 0.002518, 0.999998, 0.000067, 0.002052, 0.000646, -71.172790, -76.153669, -22.017829, , , 0.000000, , , 
24743, , 9.359550, -2.607372, 0.738512, -0.407803, -0.003190, -0.077261, -0.096189, 0.427909, 0.134976, -0.693359, 0.579834, -0.026611, 0.093629, -0.026007, 0.007197, 0.999997, -0.000481, 0.002140, 0.000675, -70.459114, -76.012586, -22.817679, , , 0.000000, , , 
24744, , 9.285875, -3.073818, 1.175126, -0.837521, 0.421850, -0.005688, -0.056800, 0.411830, 0.117550, -0.695312, 0.577637, -0.032959, 0.092901, -0.030680, 0.011569, 0.999998, -0.000284, 0.002059, 0.000588, -69.707001, -75.869475, -23.627643, , , 0.000000, , , 
24745, , 9.021754, -3.163183, 2.053273, -0.915791, 1.292675, -0.163650, 0.026581, 0.341232, 0.093367, -0.691162, 0.584229, -0.035156, 0.090267, -0.031592, 0.020375, 0.999998, 0.000133, 0.001706, 0.000467, -69.096929, -75.764017, -24.249094, , , 0.000000, , , 
24746, , 8.890761, -3.419171, 1.537065, -1.223824, 0.776609, -0.273400, 0.129495, 0.219060, 0.062628, -0.699951, 0.579834, -0.037109, 0.088935, -0.034174, 0.015251, 0.999999, 0.000647, 0.001095, 0.000313, -68.623139, -75.685982, -24.662547, , , 0.000000, , , 
24747, , 8.900778, -3.116609, 1.417989, -0.935952, 0.622567, -0.342516, 0.338529, 0.132527, 0.038880, -0.697754, 0.582031, -0.037109, 0.089023, -0.031173, 0.014068, 0.999998, 0.001693, 0.000663, 0.000194, -68.227636, -75.648944, -24.878536, , , 0.000000, , , 
24748, , 9.351287, -2.853092, 1.951015, -0.548793, 1.073653, 0.083737, 0.434042, 0.077434, 0.014860, -0.690918, 0.577637, -0.037109, 0.093523, -0.028566, 0.019412, 0.999998, 0.002170, 0.000387, 0.000074, -67.840405, -75.625235, -25.022718, , , 0.000000, , , 
24749, , 9.884780, -1.878135, 0.656808, 0.435161, -0.318071, 0.255933, 0.488483, 0.040842, 0.026483, -0.695557, 0.582031, -0.043457, 0.098852, -0.018784, 0.006502, 0.999997, 0.002442, 0.000204, 0.000132, -67.560061, -75.617278, -25.034631, , , 0.000000, , , 
24750, , 10.142626, -0.582027, 0.560822, 1.748804, -0.496116, 0.198390, 0.413989, 0.105820, 0.044011, -0.693115, 0.579834, -0.049805, 0.101430, -0.005809, 0.005543, 0.999998, 0.002070, 0.000529, 0.000220, -67.152704, -75.571544, -25.211544, , , 0.000000, , , 
24751, , 9.715878, -0.882424, 0.445913, 1.357809, -0.568690, -0.158221, -0.000545, 0.164071, 0.088551, -0.686523, 0.579834, -0.049805, 0.097166, -0.008781, 0.004379, 1.000000, -0.000003, 0.000820, 0.000443, -66.935986, -75.501097, -25.443588, , , 0.000000, , , 
24752, , 9.483867, -2.113845, 0.394335, 0.113605, -0.575361, -0.105804, -0.168175, 0.207236, 0.098862, -0.688721, 0.579834, -0.047607, 0.094853, -0.021088, 0.003863, 0.999999, -0.000841, 0.001036, 0.000494, -66.707562, -75.403249, -25.780401, , , 0.000000, , , 
24753, , 9.536835, -2.888963, 0.772739, -0.598015, -0.197026, 0.162179, -0.121534, 0.235526, 0.103236, -0.693359, 0.584229, -0.052002, 0.095392, -0.028836, 0.007633, 0.999999, -0.000608, 0.001178, 0.000516, -66.440965, -75.305941, -26.133878, , , 0.000000, , , 
24754, , 9.525122, -2.440342, 1.152011, -0.133199, 0.145834, 0.085357, -0.009072, 0.237328, 0.099534, -0.693359, 0.582031, -0.049805, 0.095277, -0.024355, 0.011408, 0.999999, -0.000045, 0.001187, 0.000498, -66.070485, -75.200010, -26.523667, , , 0.000000, , , 
24755, , 9.390854, -2.471932, 1.426560, -0.172701, 0.415939, -0.008056, -0.015906, 0.209999, 0.065007, -0.688721, 0.582031, -0.052002, 0.093931, -0.024688, 0.014169, 0.999999, -0.000080, 0.001050, 0.000325, -65.760989, -75.132005, -26.861553, , , 0.000000, , , 
24756, , 9.289817, -2.689186, 1.520482, -0.396488, 0.510293, -0.044030, 0.013949, 0.164716, 0.045550, -0.688965, 0.588623, -0.047852, 0.092917, -0.026872, 0.015126, 1.000000, 0.000070, 0.000824, 0.000228, -65.480340, -75.070391, -27.145053, , , 0.000000, , , 
24757, , 9.156000, -2.321026, 1.781481, -0.052021, 0.762609, -0.230992, 0.052729, 0.114945, 0.025838, -0.686523, 0.579834, -0.056152, 0.091573, -0.023203, 0.017756, 1.000000, 0.000264, 0.000575, 0.000129, -65.311833, -75.041063, -27.301807, , , 0.000000, , , 
24758, , 9.070657, -2.305734, 1.665348, -0.062662, 0.649311, -0.328961, 0.031818, 0.038068, 0.009592, -0.688721, 0.579834, -0.052002, 0.090711, -0.023056, 0.016633, 1.000000, 0.000159, 0.000190, 0.000048, -65.238229, -75.028123, -27.360538, , , 0.000000, , , 
24759, , 9.429907, -2.116563, 1.267840, 0.178449, 0.206444, -0.069180, 0.082591, -0.012120, -0.001691, -0.691162, 0.582031, -0.052002, 0.094298, -0.021172, 0.012675, 1.000000, 0.000413, -0.000061, -0.000008, -65.249138, -75.047372, -27.304949, , , 0.000000, , , 
24760, , 9.248226, -2.074728, 0.944373, 0.156981, -0.093911, -0.289423, 0.076237, -0.020476, -0.021312, -0.691162, 0.586426, -0.054199, 0.092479, -0.020761, 0.009445, 1.000000, 0.000381, -0.000102, -0.000107, -65.236499, -75.064618, -27.274276, , , 0.000000, , , 
24761, , 9.180364, -2.318434, 0.875910, -0.102793, -0.142062, -0.305286, 0.042697, -0.038472, -0.017836, -0.688965, 0.584229, -0.056152, 0.091800, -0.023194, 0.008772, 1.000000, 0.000213, -0.000192, -0.000089, -65.320467, -75.097536, -27.174107, , , 0.000000, , , 
24762, , 9.391858, -2.372870, 1.006848, -0.101877, -0.031446, -0.074110, -0.000239, -0.041905, -0.020350, -0.686768, 0.586426, -0.052002, 0.093914, -0.023738, 0.010088, 1.000000, -0.000001, -0.000210, -0.000102, -65.394913, -75.119447, -27.098721, , , 0.000000, , , 
24763, , 9.505375, -2.570021, 1.031152, -0.268131, -0.007956, 0.084205, -0.033588, -0.034415, -0.020318, -0.690918, 0.579834, -0.053955, 0.095049, -0.025708, 0.010332, 1.000000, -0.000168, -0.000172, -0.000102, -65.513350, -75.146554, -27.007871, , , 0.000000, , , 
24764, , 9.490336, -2.394652, 0.858626, -0.112263, -0.178521, 0.010428, -0.000230, -0.032460, -0.015159, -0.693359, 0.582031, -0.049805, 0.094900, -0.023954, 0.008602, 1.000000, -0.000001, -0.000162, -0.000076, -65.574559, -75.163487, -26.946230, , , 0.000000, , , 
24765, , 9.527855, -2.298957, 1.309123, 0.011415, 0.267557, 0.072014, 0.017206, -0.032199, -0.015074, -0.691162, 0.584229, -0.052002, 0.095275, -0.022998, 0.013105, 1.000000, 0.000086, -0.000161, -0.000075, -65.659330, -75.196265, -26.856705, , , 0.000000, , , 
24766, , 9.736953, -2.347202, 1.077539, -0.001601, 0.018153, 0.260960, 0.027505, -0.032486, 0.002713, -0.691162, 0.586426, -0.054199, 0.097368, -0.023472, 0.010788, 1.000000, 0.000138, -0.000162, 0.000014, -65.721171, -75.203907, -26.778034, , , 0.000000, , , 
24767, , 9.938764, -2.347812, 1.255913, 0.052835, 0.177280, 0.474895, 0.035555, -0.034996, -0.002886, -0.684326, 0.582031, -0.052002, 0.099385, -0.023482, 0.012572, 1.000000, 0.000178, -0.000175, -0.000014, -65.812453, -75.223418, -26.674275, , , 0.000000, , , 
24768, , 9.942835, -2.450553, 1.084548, -0.055687, 0.012132, 0.484797, 0.058479, -0.024491, 0.011422, -0.688721, 0.579834, -0.053955, 0.099428, -0.024503, 0.010850, 1.000000, 0.000292, -0.000122, 0.000057, -65.848819, -75.224622, -26.603645, , , 0.000000, , , 
24769, , 9.831468, -1.883778, 0.674191, 0.447806, -0.397359, 0.202426, 0.150076, -0.009754, 0.029007, -0.691162, 0.584229, -0.052002, 0.098317, -0.018829, 0.006733, 1.000000, 0.000750, -0.000049, 0.000145, -65.848639, -75.221488, -26.521184, , , 0.000000, , , 
24770, , 9.777337, -1.753057, 0.701673, 0.565090, -0.370528, 0.122364, 0.143907, 0.026256, 0.016298, -0.688965, 0.586426, -0.062744, 0.097776, -0.017528, 0.006991, 1.000000, 0.000720, 0.000131, 0.000081, -65.740020, -75.208273, -26.549912, , , 0.000000, , , 
24771, , 9.423986, -2.176360, 0.499398, 0.062786, -0.523769, -0.142156, 0.087255, 0.041908, 0.025084, -0.686523, 0.584229, -0.056152, 0.094244, -0.021754, 0.004965, 1.000000, 0.000436, 0.000210, 0.000125, -65.657985, -75.192754, -26.588860, , , 0.000000, , , 
24772, , 9.112116, -2.019066, 0.749809, 0.159366, -0.249178, -0.454162, 0.080091, 0.053301, 0.034540, -0.691162, 0.584229, -0.058350, 0.091127, -0.020178, 0.007466, 1.000000, 0.000400, 0.000267, 0.000173, -65.549237, -75.163622, -26.655568, , , 0.000000, , , 
24773, , 9.053323, -2.163261, 0.911936, 0.015960, -0.082088, -0.460308, 0.032133, 0.054893, 0.035561, -0.688965, 0.584229, -0.058350, 0.090540, -0.021618, 0.009091, 1.000000, 0.000161, 0.000274, 0.000178, -65.490489, -75.140945, -26.704499, , , 0.000000, , , 
24774, , 9.228654, -2.629270, 1.082101, -0.385456, 0.073499, -0.163952, 0.002471, 0.046706, 0.030186, -0.686523, 0.582031, -0.056152, 0.092293, -0.026279, 0.010799, 1.000000, 0.000012, 0.000234, 0.000151, -65.435868, -75.115643, -26.761261, , , 0.000000, , , 
24775, , 9.442452, -2.554132, 1.114456, -0.260005, 0.076688, 0.028655, 0.047389, 0.035873, 0.030059, -0.688965, 0.586426, -0.062744, 0.094430, -0.025530, 0.011122, 1.000000, 0.000237, 0.000179, 0.000150, -65.403720, -75.101570, -26.773309, , , 0.000000, , , 
24776, , 9.475301, -2.115280, 0.996238, 0.170645, -0.058964, -0.054838, 0.009237, 0.039195, 0.030727, -0.684570, 0.586426, -0.060547, 0.094758, -0.021139, 0.009943, 1.000000, 0.000046, 0.000196, 0.000154, -65.360809, -75.077796, -26.813982, , , 0.000000, , , 
24777, , 9.342425, -2.307614, 1.007483, -0.044261, -0.029851, -0.137039, -0.049239, 0.040744, 0.011523, -0.686523, 0.580078, -0.058350, 0.093428, -0.023068, 0.010061, 1.000000, -0.000246, 0.000204, 0.000058, -65.344550, -75.066398, -26.864675, , , 0.000000, , , 
24778, , 9.332226, -2.673216, 1.133698, -0.394204, 0.104811, -0.047677, -0.078916, 0.023113, 0.000956, -0.686768, 0.593018, -0.056396, 0.093324, -0.026727, 0.011337, 1.000000, -0.000395, 0.000116, 0.000005, -65.357054, -75.061975, -26.900287, , , 0.000000, , , 
24779, , 9.444437, -2.453134, 1.085064, -0.156194, 0.040490, 0.003962, -0.080881, 0.010727, -0.001141, -0.684326, 0.584229, -0.058350, 0.094445, -0.024527, 0.010855, 1.000000, -0.000404, 0.000054, -0.000006, -65.425692, -75.066241, -26.890388, , , 0.000000, , , 
24780, , 9.469680, -2.296104, 1.220579, 0.009594, 0.169972, 0.006058, -0.105762, 0.005157, -0.017929, -0.688965, 0.584229, -0.058350, 0.094695, -0.022963, 0.012215, 1.000000, -0.000529, 0.000026, -0.000090, -65.471927, -75.075971, -26.907043, , , 0.000000, , , 
24781, , 9.659875, -2.366721, 1.087160, -0.023482, 0.020977, 0.192085, -0.107929, 0.008719, -0.015973, -0.691162, 0.588623, -0.058350, 0.096597, -0.023669, 0.010880, 1.000000, -0.000540, 0.000044, -0.000080, -65.533026, -75.089957, -26.912096, , , 0.000000, , , 
24782, , 9.655662, -2.219827, 1.140632, 0.120587, 0.072607, 0.159307, -0.102919, 0.007613, -0.022249, -0.691162, 0.590820, -0.052246, 0.096555, -0.022203, 0.011414, 1.000000, -0.000515, 0.000038, -0.000111, -65.569094, -75.101393, -26.937604, , , 0.000000, , , 
24783, , 9.905516, -2.600680, 1.359511, -0.180461, 0.276129, 0.513117, -0.100499, 0.009858, -0.013879, -0.690918, 0.579834, -0.053955, 0.099054, -0.026007, 0.013603, 1.000000, -0.000502, 0.000049, -0.000069, -65.638457, -75.112666, -26.942354, , , 0.000000, , , 
24784, , 9.723106, -2.212306, 0.802310, 0.123800, -0.267002, 0.186822, -0.037905, 0.019778, 0.009461, -0.686768, 0.586426, -0.054199, 0.097233, -0.022117, 0.008018, 1.000000, -0.000190, 0.000099, 0.000047, -65.641772, -75.104706, -26.963240, , , 0.000000, , , 
24785, , 9.605768, -1.710404, 0.760446, 0.581818, -0.310564, -0.048489, 0.017878, 0.028733, 0.002979, -0.691162, 0.588623, -0.056396, 0.096059, -0.017103, 0.007589, 1.000000, 0.000089, 0.000144, 0.000015, -65.614286, -75.107592, -26.986001, , , 0.000000, , , 
24786, , 9.566588, -1.718186, 0.865808, 0.571781, -0.204156, -0.073448, -0.020032, 0.045786, 0.008469, -0.688965, 0.588623, -0.054199, 0.095669, -0.017177, 0.008638, 1.000000, -0.000100, 0.000229, 0.000042, -65.555633, -75.094028, -27.060441, , , 0.000000, , , 
24787, , 9.429115, -1.783007, 0.976903, 0.486821, -0.077682, -0.179483, -0.162283, 0.063495, 0.043731, -0.688965, 0.588623, -0.056396, 0.094298, -0.017802, 0.009754, 1.000000, -0.000811, 0.000317, 0.000219, -65.600572, -75.062301, -27.123662, , , 0.000000, , , 
24788, , 9.217145, -2.040103, 0.961243, 0.195281, -0.060347, -0.325855, -0.341546, 0.059063, 0.069237, -0.686523, 0.582031, -0.049805, 0.092181, -0.020353, 0.009620, 0.999998, -0.001708, 0.000295, 0.000346, -65.754207, -75.013925, -27.169092, , , 0.000000, , , 
24789, , 9.126481, -2.614029, 1.080583, -0.366734, 0.094583, -0.265436, -0.342576, 0.046338, 0.048626, -0.686768, 0.584229, -0.050049, 0.091274, -0.026100, 0.010829, 0.999998, -0.001713, 0.000232, 0.000243, -65.938850, -74.986936, -27.188439, , , 0.000000, , , 
24790, , 9.148950, -2.851476, 1.195240, -0.576631, 0.220695, -0.175178, -0.276765, 0.021136, 0.034141, -0.684570, 0.588623, -0.052246, 0.091496, -0.028483, 0.011982, 0.999999, -0.001384, 0.000106, 0.000171, -66.098126, -74.965867, -27.189637, , , 0.000000, , , 
24791, , 9.290436, -2.714864, 1.454134, -0.387995, 0.462910, -0.043739, -0.238009, -0.010054, 0.007376, -0.682129, 0.582031, -0.052002, 0.092905, -0.027128, 0.014578, 0.999999, -0.001190, -0.000050, 0.000037, -66.290625, -74.971000, -27.136789, , , 0.000000, , , 
24792, , 9.354580, -2.632403, 1.347387, -0.297307, 0.355487, -0.012769, -0.229115, -0.055916, -0.011098, -0.682373, 0.588623, -0.047852, 0.093541, -0.026314, 0.013530, 0.999999, -0.001146, -0.000280, -0.000055, -66.534284, -74.991375, -27.022371, , , 0.000000, , , 
24793, , 9.527004, -2.601986, 1.321495, -0.228736, 0.321217, 0.143465, -0.199084, -0.079816, -0.031424, -0.684326, 0.582031, -0.041504, 0.095261, -0.026022, 0.013279, 0.999999, -0.000995, -0.000399, -0.000157, -66.799013, -75.029747, -26.866110, , , 0.000000, , , 
24794, , 9.631841, -2.233759, 1.087327, 0.134231, 0.071944, 0.133222, -0.153155, -0.096833, -0.038776, -0.691162, 0.584229, -0.041504, 0.096309, -0.022348, 0.010937, 1.000000, -0.000766, -0.000484, -0.000194, -67.057930, -75.073640, -26.690900, , , 0.000000, , , 
24795, , 9.536059, -1.949657, 0.898599, 0.370121, -0.103390, -0.045529, -0.149447, -0.101609, -0.045679, -0.688965, 0.584229, -0.039307, 0.095352, -0.019512, 0.009049, 1.000000, -0.000747, -0.000508, -0.000228, -67.345499, -75.133182, -26.485395, , , 0.000000, , , 
24796, , 9.420567, -1.838057, 0.851353, 0.446317, -0.129415, -0.188012, -0.209468, -0.094884, -0.040303, -0.688965, 0.584229, -0.039307, 0.094198, -0.018391, 0.008577, 0.999999, -0.001047, -0.000474, -0.000202, -67.634500, -75.177060, -26.312553, , , 0.000000, , , 
24797, , 9.270080, -1.986345, 0.777995, 0.261014, -0.161269, -0.305265, -0.315340, -0.085413, -0.023064, -0.686768, 0.584229, -0.035156, 0.092695, -0.019862, 0.007851, 0.999999, -0.001577, -0.000427, -0.000115, -68.001655, -75.218875, -26.123354, , , 0.000000, , , 
24798, , 8.972797, -2.232460, 0.743041, -0.045955, -0.132081, -0.537586, -0.397850, -0.090590, 0.001514, -0.688965, 0.586426, -0.035156, 0.089725, -0.022309, 0.007515, 0.999998, -0.001989, -0.000453, 0.000008, -68.426717, -75.239069, -25.921503, , , 0.000000, , , 
24799, , 8.936731, -2.611618, 1.071876, -0.389519, 0.240951, -0.451875, -0.330354, -0.109124, -0.004296, -0.684570, 0.586426, -0.028809, 0.089361, -0.026100, 0.010811, 0.999998, -0.001652, -0.000546, -0.000021, -68.865627, -75.271906, -25.669057, , , 0.000000, , , 
24800, , 9.316047, -2.922201, 1.291467, -0.579942, 0.457159, 0.008234, -0.237450, -0.142510, -0.008083, -0.688965, 0.588623, -0.031006, 0.093150, -0.029210, 0.013016, 0.999999, -0.001187, -0.000713, -0.000040, -69.299226, -75.307100, -25.363440, , , 0.000000, , , 
24801, , 9.577243, -2.633464, 1.258260, -0.240419, 0.398358, 0.188583, -0.156545, -0.176827, -0.013706, -0.684326, 0.584229, -0.037354, 0.095759, -0.026331, 0.012688, 0.999999, -0.000783, -0.000884, -0.000069, -69.773239, -75.353415, -24.977438, , , 0.000000, , , 
24802, , 9.555739, -2.174364, 1.219158, 0.196418, 0.351774, 0.054632, -0.122507, -0.194480, -0.038227, -0.691162, 0.586426, -0.024658, 0.095541, -0.021754, 0.012298, 0.999999, -0.000613, -0.000972, -0.000191, -70.229837, -75.413780, -24.580147, , , 0.000000, , , 
24803, , 9.475345, -2.180348, 1.140392, 0.163740, 0.306792, -0.029253, -0.235099, -0.216709, -0.045814, -0.688965, 0.588623, -0.018311, 0.094736, -0.021812, 0.011532, 0.999999, -0.001175, -0.001084, -0.000229, -70.786741, -75.484518, -24.134114, , , 0.000000, , , 
24804, , 9.434072, -2.476404, 1.038472, -0.141859, 0.261150, -0.008387, -0.368302, -0.237182, -0.055859, -0.686768, 0.584229, -0.016113, 0.094321, -0.024771, 0.010542, 0.999998, -0.001842, -0.001186, -0.000279, -71.469519, -75.560389, -23.648914, , , 0.000000, , , 
24805, , 9.586649, -2.698935, 1.091338, -0.316753, 0.351581, 0.195062, -0.400429, -0.263026, -0.071047, -0.688965, 0.586426, -0.009766, 0.095842, -0.027001, 0.011093, 0.999997, -0.002002, -0.001315, -0.000355, -72.249094, -75.650161, -23.097979, , , 0.000000, , , 
24806, , 9.445784, -2.473804, 0.887999, -0.151228, 0.183368, -0.010929, -0.523484, -0.267530, -0.075606, -0.684570, 0.586426, -0.003418, 0.094436, -0.024750, 0.009071, 0.999996, -0.002617, -0.001338, -0.000378, -73.086516, -75.738736, -22.545352, , , 0.000000, , , 
24807, , 9.133386, -2.099235, 0.514100, 0.099631, -0.150226, -0.428807, -0.488313, -0.297480, -0.101580, -0.688721, 0.575439, -0.003174, 0.091315, -0.021026, 0.005328, 0.999996, -0.002442, -0.001487, -0.000508, -73.997352, -75.844074, -21.920883, , , 0.000000, , , 
24808, , 8.954123, -2.133338, 0.382256, 0.007013, -0.222325, -0.602695, -0.474215, -0.311855, -0.121510, -0.691162, 0.579834, 0.000977, 0.089522, -0.021378, 0.004013, 0.999996, -0.002371, -0.001559, -0.000608, -74.894979, -75.960514, -21.277632, , , 0.000000, , , 
24809, , 8.948749, -2.373523, 0.632646, -0.204364, 0.091340, -0.535635, -0.438077, -0.332045, -0.133035, -0.688965, 0.583984, 0.005127, 0.089461, -0.023781, 0.006527, 0.999996, -0.002190, -0.001660, -0.000665, -75.837449, -76.092968, -20.556979, , , 0.000000, , , 
24810, , 9.260940, -2.755740, 0.910448, -0.476142, 0.423219, -0.128575, -0.376752, -0.370232, -0.134514, -0.691162, 0.577637, 0.011475, 0.092574, -0.027602, 0.009328, 0.999996, -0.001884, -0.001851, -0.000673, -76.831194, -76.219366, -19.757938, , , 0.000000, , , 
24811, , 9.746862, -2.437874, 0.935564, -0.062593, 0.422938, 0.268822, -0.291282, -0.391134, -0.139437, -0.695557, 0.581787, 0.015625, 0.097433, -0.024433, 0.009582, 0.999997, -0.001456, -0.001956, -0.000697, -77.850399, -76.349146, -18.886614, , , 0.000000, , , 
24812, , 9.808098, -2.060917, 0.869916, 0.299809, 0.359521, 0.236372, -0.232558, -0.408554, -0.156499, -0.695557, 0.581787, 0.021973, 0.098047, -0.020676, 0.008923, 0.999997, -0.001163, -0.002043, -0.000782, -78.873617, -76.485475, -17.973162, , , 0.000000, , , 
24813, , 9.580572, -2.121295, 0.907979, 0.185392, 0.469719, 0.028880, -0.222877, -0.445664, -0.190643, -0.691162, 0.577637, 0.020020, 0.095765, -0.021294, 0.009317, 0.999996, -0.001114, -0.002228, -0.000953, -80.003316, -76.642626, -16.956698, , , 0.000000, , , 
24814, , 9.388625, -2.251503, 0.340621, -0.066192, -0.013513, -0.152109, -0.248921, -0.474761, -0.199631, -0.690918, 0.575195, 0.032715, 0.093855, -0.022604, 0.003657, 0.999996, -0.001245, -0.002374, -0.000998, -81.220645, -76.801008, -15.854619, , , 0.000000, , , 
24815, , 9.132950, -1.979280, -0.032216, 0.081312, -0.346689, -0.474468, -0.205227, -0.480910, -0.204947, -0.693359, 0.577393, 0.036865, 0.091310, -0.019887, -0.000082, 0.999996, -0.001026, -0.002405, -0.001025, -82.464124, -76.955685, -14.708332, , , 0.000000, , , 
24816, , 9.051882, -1.857176, 0.001081, 0.172323, -0.272194, -0.577881, -0.209146, -0.498838, -0.226520, -0.690918, 0.566650, 0.032715, 0.090497, -0.018674, 0.000256, 0.999996, -0.001046, -0.002494, -0.001133, -83.766305, -77.119804, -13.497236, , , 0.000000, , , 
24817, , 9.080644, -1.774875, -0.401599, 0.191472, -0.629673, -0.574931, -0.241138, -0.514025, -0.235040, -0.702148, 0.570801, 0.045410, 0.090795, -0.017860, -0.003761, 0.999995, -0.001206, -0.002570, -0.001175, -85.161844, -77.282025, -12.212408, , , 0.000000, , , 
24818, , 9.452888, -1.751023, 0.007786, 0.332013, -0.189380, -0.206603, -0.272715, -0.502278, -0.245796, -0.701904, 0.568604, 0.045410, 0.094507, -0.017626, 0.000339, 0.999995, -0.001364, -0.002511, -0.001229, -86.570884, -77.444070, -10.930703, , , 0.000000, , , 
24819, , 9.996807, -3.579510, 0.692726, -1.246453, 0.757823, 0.727740, -0.456043, -0.445357, -0.213807, -0.695312, 0.570801, 0.055908, 0.099914, -0.035886, 0.007232, 0.999994, -0.002280, -0.002227, -0.001069, -87.989418, -77.584055, -9.746069, , , 0.000000, , , 
24820, , 10.054348, -3.014456, 0.189728, -0.768565, 0.244222, 0.654510, -0.231112, -0.470216, -0.212761, -0.704102, 0.564209, 0.049805, 0.100506, -0.030249, 0.002169, 0.999996, -0.001156, -0.002351, -0.001064, -89.357382, -77.712844, -8.483432, , , 0.000000, , , 
24821, , 9.825343, -2.249289, 0.337855, -0.071909, 0.351307, 0.266101, -0.119525, -0.474840, -0.249080, -0.699463, 0.557861, 0.058350, 0.098217, -0.022613, 0.003625, 0.999996, -0.000598, -0.002374, -0.001245, -90.693849, -77.854651, -7.185347, , , 0.000000, , , 
24822, , 9.571221, -2.128653, 0.252827, -0.037904, 0.311523, -0.009392, -0.117185, -0.508951, -0.259813, -0.699707, 0.562012, 0.064697, 0.095678, -0.021409, 0.002784, 0.999996, -0.000586, -0.002545, -0.001299, -92.160061, -77.996713, -5.756812, , , 0.000000, , , 
24823, , 9.421494, -1.826215, -0.000704, 0.169926, 0.078420, -0.217674, -0.147512, -0.535119, -0.290225, -0.701904, 0.562012, 0.062500, 0.094188, -0.018399, 0.000259, 0.999995, -0.000738, -0.002676, -0.001451, -93.750023, -78.148443, -4.211095, , , 0.000000, , , 
24824, , 9.322726, -1.840870, -0.228896, 0.083232, -0.085991, -0.307964, -0.162212, -0.557120, -0.308764, -0.706299, 0.557617, 0.075195, 0.093205, -0.018554, -0.002014, 0.999995, -0.000811, -0.002786, -0.001544, -95.456813, -78.299481, -2.564734, , , 0.000000, , , 
24825, , 9.233379, -1.696532, -0.379838, 0.162454, -0.195886, -0.420526, -0.161512, -0.569391, -0.322486, -0.706299, 0.555420, 0.077393, 0.092317, -0.017117, -0.003522, 0.999994, -0.000808, -0.002847, -0.001612, -97.224673, -78.445943, -0.849021, , , 0.000000, , , 
24826, , 9.214288, -1.487653, -1.003301, 0.251927, -0.783083, -0.461441, -0.148830, -0.564945, -0.338880, -0.710693, 0.553223, 0.081787, 0.092145, -0.015040, -0.009762, 0.999994, -0.000744, -0.002825, -0.001694, -99.042892, -78.592451, 0.917129, , , 0.000000, , , 
24827, , 9.140564, -1.209948, -1.280255, 0.444741, -1.039647, -0.572883, -0.101065, -0.546736, -0.336317, -0.708252, 0.546875, 0.083984, 0.091420, -0.012260, -0.012546, 0.999995, -0.000505, -0.002734, -0.001682, -100.815309, -78.729167, 2.671525, , , 0.000000, , , 
24828, , 9.282867, -1.186529, -1.273400, 0.472809, -0.979708, -0.430931, -0.088923, -0.525702, -0.328202, -0.710449, 0.548828, 0.085938, 0.092842, -0.012023, -0.012485, 0.999995, -0.000445, -0.002629, -0.001641, -102.567310, -78.852148, 4.403490, , , 0.000000, , , 
24829, , 9.622802, -1.592111, -1.071029, 0.148875, -0.664068, -0.024080, -0.150473, -0.462771, -0.301438, -0.710449, 0.548828, 0.096680, 0.096228, -0.016074, -0.010476, 0.999996, -0.000752, -0.002314, -0.001507, -104.167195, -78.960711, 5.963960, , , 0.000000, , , 
24830, , 10.056512, -2.277378, -0.580932, -0.389245, -0.021941, 0.507446, -0.170205, -0.394498, -0.264603, -0.712646, 0.538086, 0.094727, 0.100546, -0.022912, -0.005592, 0.999997, -0.000851, -0.001972, -0.001323, -105.610066, -79.048823, 7.332329, , , 0.000000, , , 
24831, , 10.186632, -2.118382, -0.462912, -0.215043, 0.118210, 0.599273, -0.118593, -0.331051, -0.247986, -0.717041, 0.544434, 0.098877, 0.101847, -0.021313, -0.004448, 0.999998, -0.000593, -0.001655, -0.001240, -106.838217, -79.132946, 8.522878, , , 0.000000, , , 
24832, , 10.152947, -1.852274, -0.366726, 0.030300, 0.211125, 0.512143, -0.079217, -0.297509, -0.241945, -0.710449, 0.544434, 0.103027, 0.101512, -0.018647, -0.003509, 0.999998, -0.000396, -0.001488, -0.001210, -107.971669, -79.213752, 9.628533, , , 0.000000, , , 
24833, , 9.853666, -1.453924, -0.401727, 0.336546, 0.140813, 0.149079, -0.044791, -0.267230, -0.275626, -0.717041, 0.535645, 0.105225, 0.098522, -0.014676, -0.003882, 0.999998, -0.000224, -0.001336, -0.001378, -109.016367, -79.311180, 10.669102, , , 0.000000, , , 
24834, , 9.839851, -1.666931, -0.356260, 0.109110, 0.249276, 0.170001, -0.008128, -0.294722, -0.290612, -0.714844, 0.537842, 0.111572, 0.098379, -0.016812, -0.003417, 0.999998, -0.000041, -0.001474, -0.001453, -110.186040, -79.410762, 11.852378, , , 0.000000, , , 
24835, , 9.915232, -1.896365, -0.365360, -0.126398, 0.311433, 0.283272, 0.031210, -0.317903, -0.289953, -0.721436, 0.535645, 0.113770, 0.099130, -0.019107, -0.003499, 0.999998, 0.000156, -0.001590, -0.001450, -111.416001, -79.500352, 13.122640, , , 0.000000, , , 
24836, , 9.865780, -1.814209, -0.692932, -0.124499, 0.009064, 0.241635, 0.084176, -0.333268, -0.292206, -0.723633, 0.533447, 0.111572, 0.098643, -0.018283, -0.006773, 0.999997, 0.000421, -0.001666, -0.001461, -112.688086, -79.583055, 14.463143, , , 0.000000, , , 
24837, , 9.871660, -1.976419, -0.739003, -0.311519, 0.023160, 0.277125, 0.072061, -0.334459, -0.284324, -0.719238, 0.533447, 0.115967, 0.098701, -0.019902, -0.007232, 0.999998, 0.000360, -0.001672, -0.001422, -113.976138, -79.656945, 15.816276, , , 0.000000, , , 
24838, , 9.686617, -1.878986, -0.919132, -0.295137, -0.143356, 0.091764, 0.041918, -0.315067, -0.269109, -0.725830, 0.531250, 0.115967, 0.096855, -0.018918, -0.009043, 0.999998, 0.000210, -0.001575, -0.001346, -115.228177, -79.721051, 17.111167, , , 0.000000, , , 
24839, , 9.744649, -1.632351, -0.791633, -0.047969, -0.016763, 0.099262, 0.008048, -0.312573, -0.259136, -0.718994, 0.529053, 0.124512, 0.097437, -0.016449, -0.007765, 0.999998, 0.000040, -0.001563, -0.001296, -116.473458, -79.773614, 18.380783, , , 0.000000, , , 
24840, , 9.928911, -1.661321, -0.887488, -0.078413, -0.062489, 0.292792, -0.027197, -0.307003, -0.242418, -0.723389, 0.526855, 0.122314, 0.099282, -0.016735, -0.008720, 0.999998, -0.000136, -0.001535, -0.001212, -117.731278, -79.816033, 19.640883, , , 0.000000, , , 
24841, , 9.854247, -1.399652, -0.975761, 0.134386, -0.157906, 0.186022, -0.050879, -0.297335, -0.233778, -0.721191, 0.527100, 0.120361, 0.098540, -0.014114, -0.009608, 0.999998, -0.000254, -0.001487, -0.001169, -118.963497, -79.846865, 20.852623, , , 0.000000, , , 
24842, , 9.804696, -1.359379, -0.761957, 0.175941, 0.077192, 0.113215, -0.097314, -0.280834, -0.213920, -0.725586, 0.526855, 0.122314, 0.098043, -0.013702, -0.007475, 0.999998, -0.000487, -0.001404, -0.001070, -120.160644, -79.872839, 22.010006, , , 0.000000, , , 
24843, , 9.728963, -1.453311, -0.749209, 0.057540, 0.129431, 0.051692, -0.075645, -0.285363, -0.207968, -0.725586, 0.524658, 0.126709, 0.097285, -0.014637, -0.007348, 0.999998, -0.000378, -0.001427, -0.001040, -121.297199, -79.887454, 23.126850, , , 0.000000, , , 
24844, , 9.783013, -1.526148, -0.809452, -0.029221, 0.116133, 0.120955, -0.022629, -0.283584, -0.200474, -0.723389, 0.522705, 0.130859, 0.097826, -0.015360, -0.007954, 0.999998, -0.000113, -0.001418, -0.001002, -122.444743, -79.897812, 24.277212, , , 0.000000, , , 
24845, , 9.640324, -1.553246, -0.940830, -0.110498, 0.010534, -0.003449, -0.009982, -0.288506, -0.198906, -0.723389, 0.522705, 0.126709, 0.096401, -0.015629, -0.009268, 0.999998, -0.000050, -0.001443, -0.000995, -123.554922, -79.897878, 25.398534, , , 0.000000, , , 
24846, , 9.498429, -1.646027, -0.881361, -0.231054, 0.103311, -0.135798, 0.012456, -0.298311, -0.205950, -0.729980, 0.518066, 0.133057, 0.094980, -0.016558, -0.008673, 0.999998, 0.000062, -0.001492, -0.001030, -124.733314, -79.898066, 26.600633, , , 0.000000, , , 
24847, , 9.584191, -1.532861, -0.908937, -0.124825, 0.095513, -0.065495, 0.053087, -0.293264, -0.201620, -0.727783, 0.518066, 0.139404, 0.095840, -0.015423, -0.008953, 0.999998, 0.000265, -0.001466, -0.001008, -125.810861, -79.892871, 27.735509, , , 0.000000, , , 
24848, , 9.661955, -1.267620, -0.997494, 0.120160, 0.006565, -0.017757, 0.035124, -0.297109, -0.203576, -0.729980, 0.516113, 0.131104, 0.096621, -0.012773, -0.009834, 0.999998, 0.000176, -0.001486, -0.001018, -126.966425, -79.884112, 28.927670, , , 0.000000, , , 
24849, , 9.800019, -1.246253, -1.058399, 0.139507, -0.014850, 0.121796, 0.002056, -0.282607, -0.203624, -0.725342, 0.511719, 0.139648, 0.098002, -0.012562, -0.010446, 0.999998, 0.000010, -0.001413, -0.001018, -128.058321, -79.875937, 30.044978, , , 0.000000, , , 
24850, , 9.730300, -1.247979, -1.248614, 0.086686, -0.177192, 0.074487, -0.012108, -0.285638, -0.199083, -0.734375, 0.515869, 0.135254, 0.097308, -0.012577, -0.012346, 0.999998, -0.000061, -0.001428, -0.000995, -129.197886, -79.861096, 31.193484, , , 0.000000, , , 
24851, , 9.783508, -1.302146, -1.270443, 0.024208, -0.157477, 0.137246, -0.020359, -0.259542, -0.190899, -0.725342, 0.513916, 0.143799, 0.097839, -0.013116, -0.012576, 0.999999, -0.000102, -0.001298, -0.000954, -130.206604, -79.849711, 32.218523, , , 0.000000, , , 
24852, , 9.681284, -1.218856, -1.263987, 0.077060, -0.145081, 0.025172, -0.014431, -0.244849, -0.176089, -0.731934, 0.511719, 0.143799, 0.096817, -0.012275, -0.012520, 0.999999, -0.000072, -0.001224, -0.000880, -131.193648, -79.832830, 33.210847, , , 0.000000, , , 
24853, , 9.714815, -1.302505, -1.347522, -0.022804, -0.186990, 0.079452, 0.010453, -0.232809, -0.167804, -0.725342, 0.513916, 0.143799, 0.097153, -0.013106, -0.013363, 0.999999, 0.000052, -0.001164, -0.000839, -132.064730, -79.811191, 34.105647, , , 0.000000, , , 
24854, , 9.761644, -1.240869, -1.329443, 0.034609, -0.149651, 0.115717, 0.061484, -0.212071, -0.158198, -0.727539, 0.507324, 0.148193, 0.097621, -0.012482, -0.013195, 0.999999, 0.000307, -0.001060, -0.000791, -132.885435, -79.794009, 34.973288, , , 0.000000, , , 
24855, , 9.773453, -1.099375, -1.286719, 0.171281, -0.106429, 0.104165, 0.089115, -0.197022, -0.146449, -0.736572, 0.511475, 0.147949, 0.097739, -0.011060, -0.012776, 0.999999, 0.000446, -0.000985, -0.000732, -133.563483, -79.771659, 35.718999, , , 0.000000, , , 
24856, , 9.793329, -1.040800, -1.201896, 0.232889, -0.009307, 0.106120, 0.109354, -0.188076, -0.127541, -0.731934, 0.507324, 0.145996, 0.097938, -0.010464, -0.011933, 0.999999, 0.000547, -0.000940, -0.000638, -134.227985, -79.747533, 36.455912, , , 0.000000, , , 
24857, , 9.707893, -0.922287, -1.367435, 0.308574, -0.179809, 0.027846, 0.014701, -0.186579, -0.113301, -0.736328, 0.505127, 0.154541, 0.097086, -0.009277, -0.013584, 0.999999, 0.000074, -0.000933, -0.000567, -134.853879, -79.717756, 37.110796, , , 0.000000, , , 
24858, , 9.659652, -1.049962, -1.330328, 0.172781, -0.110326, -0.007637, -0.062504, -0.181179, -0.105128, -0.731934, 0.505127, 0.154541, 0.096603, -0.010555, -0.013212, 0.999999, -0.000313, -0.000906, -0.000526, -135.543756, -79.684414, 37.773577, , , 0.000000, , , 
24859, , 9.696519, -1.320840, -1.332418, -0.096074, -0.050686, 0.063071, -0.069626, -0.164188, -0.101448, -0.734131, 0.507324, 0.156494, 0.096969, -0.013262, -0.013240, 0.999999, -0.000348, -0.000821, -0.000507, -136.169562, -79.654188, 38.369751, , , 0.000000, , , 
24860, , 9.716204, -1.299461, -1.433668, -0.093196, -0.132803, 0.092981, -0.033967, -0.159105, -0.099319, -0.731934, 0.507324, 0.158691, 0.097167, -0.013045, -0.014257, 1.000000, -0.000170, -0.000796, -0.000497, -136.774010, -79.625095, 38.962444, , , 0.000000, , , 
24861, , 9.756420, -1.251353, -1.468581, -0.050891, -0.153326, 0.131368, 0.015112, -0.140116, -0.097159, -0.731934, 0.507324, 0.156494, 0.097568, -0.012560, -0.014618, 1.000000, 0.000076, -0.000701, -0.000486, -137.262526, -79.597384, 39.466642, , , 0.000000, , , 
24862, , 9.710351, -1.231679, -1.406295, -0.037581, -0.085979, 0.075527, 0.047160, -0.122506, -0.102392, -0.731689, 0.498535, 0.154541, 0.097106, -0.012363, -0.014006, 1.000000, 0.000236, -0.000613, -0.000512, -137.744518, -79.583011, 39.982189, , , 0.000000, , , 
24863, , 9.631492, -1.220927, -1.337700, -0.035636, -0.017362, -0.012475, 0.051039, -0.121546, -0.095954, -0.731934, 0.500732, 0.156738, 0.096317, -0.012252, -0.013322, 1.000000, 0.000255, -0.000608, -0.000480, -138.159003, -79.565472, 40.441463, , , 0.000000, , , 
24864, , 9.633778, -1.152453, -1.347194, 0.023580, -0.023586, -0.017197, 0.030021, -0.112984, -0.096981, -0.729736, 0.505127, 0.156738, 0.096340, -0.011569, -0.013419, 1.000000, 0.000150, -0.000565, -0.000485, -138.615565, -79.551680, 40.921237, , , 0.000000, , , 
24865, , 9.653393, -1.135055, -1.330740, 0.039401, 0.003512, -0.002202, 0.024679, -0.108644, -0.095015, -0.731934, 0.502930, 0.163086, 0.096536, -0.011395, -0.013256, 1.000000, 0.000123, -0.000543, -0.000475, -139.005213, -79.536324, 41.339715, , , 0.000000, , , 
24866, , 9.549430, -1.100894, -1.383344, 0.045020, -0.053104, -0.101233, -0.012110, -0.114531, -0.089833, -0.731689, 0.498535, 0.160889, 0.095497, -0.011053, -0.013778, 1.000000, -0.000061, -0.000573, -0.000449, -139.469449, -79.517891, 41.802811, , , 0.000000, , , 
24867, , 9.492396, -1.041650, -1.324125, 0.097197, 0.002515, -0.172436, -0.005938, -0.120462, -0.085233, -0.734131, 0.502930, 0.163086, 0.094927, -0.010457, -0.013184, 1.000000, -0.000030, -0.000602, -0.000426, -139.896978, -79.490447, 42.235489, , , 0.000000, , , 
24868, , 9.607183, -1.078264, -1.363724, 0.065935, -0.004035, -0.049697, 0.018589, -0.123653, -0.074534, -0.733887, 0.498535, 0.163086, 0.096076, -0.010817, -0.013579, 1.000000, 0.000093, -0.000618, -0.000373, -140.321503, -79.461087, 42.676169, , , 0.000000, , , 
24869, , 9.696066, -1.116045, -1.339778, 0.039976, 0.048717, 0.038722, 0.043835, -0.131531, -0.070733, -0.733887, 0.498535, 0.160889, 0.096965, -0.011192, -0.013336, 1.000000, 0.000219, -0.000658, -0.000354, -140.698814, -79.423319, 43.088679, , , 0.000000, , , 
24870, , 9.832147, -1.276027, -1.335221, -0.102333, 0.106346, 0.190331, 0.084378, -0.139247, -0.060737, -0.729492, 0.500732, 0.165283, 0.098327, -0.012785, -0.013289, 1.000000, 0.000422, -0.000696, -0.000304, -141.077596, -79.380937, 43.521287, , , 0.000000, , , 
24871, , 9.975717, -1.024256, -1.603833, 0.131787, -0.162509, 0.340762, 0.183199, -0.121300, -0.041487, -0.736328, 0.502930, 0.160889, 0.099765, -0.010249, -0.015987, 0.999999, 0.000916, -0.000606, -0.000207, -141.270677, -79.336213, 43.830509, , , 0.000000, , , 
24872, , 10.020118, -0.696498, -1.576029, 0.463848, -0.163880, 0.342593, 0.166276, -0.104159, -0.034620, -0.729736, 0.502930, 0.163086, 0.100208, -0.006969, -0.015714, 1.000000, 0.000831, -0.000521, -0.000173, -141.468517, -79.299515, 44.126870, , , 0.000000, , , 
24873, , 9.851875, -0.779196, -1.631487, 0.356663, -0.221538, 0.194912, 0.146986, -0.075098, -0.011036, -0.734131, 0.498535, 0.167236, 0.098524, -0.007785, -0.016284, 1.000000, 0.000735, -0.000375, -0.000055, -141.503199, -79.264061, 44.256842, , , 0.000000, , , 
24874, , 9.767625, -0.897306, -1.669219, 0.227604, -0.248526, 0.131375, 0.173622, -0.051869, 0.000730, -0.738525, 0.502686, 0.163086, 0.097681, -0.008958, -0.016675, 1.000000, 0.000868, -0.000259, 0.000004, -141.512541, -79.238060, 44.365711, , , 0.000000, , , 
24875, , 9.780090, -1.071597, -1.647197, 0.065280, -0.200271, 0.160646, 0.207850, -0.031499, 0.013862, -0.738525, 0.504883, 0.158691, 0.097804, -0.010692, -0.016468, 0.999999, 0.001039, -0.000157, 0.000069, -141.406098, -79.214385, 44.381672, , , 0.000000, , , 
24876, , 9.821345, -1.039938, -1.555724, 0.117747, -0.110079, 0.184041, 0.274261, -0.001098, 0.022242, -0.734131, 0.502930, 0.165039, 0.098215, -0.010367, -0.015571, 0.999999, 0.001371, -0.000005, 0.000111, -141.211835, -79.203446, 44.341996, , , 0.000000, , , 
24877, , 9.718029, -0.832449, -1.612849, 0.309300, -0.210810, 0.066292, 0.226978, 0.030238, 0.030989, -0.729736, 0.502930, 0.158691, 0.097179, -0.008291, -0.016153, 0.999999, 0.001135, 0.000151, 0.000155, -140.923268, -79.201002, 44.186911, , , 0.000000, , , 
24878, , 9.589302, -0.983860, -1.527506, 0.157818, -0.129819, -0.054910, 0.137412, 0.038010, 0.042790, -0.734131, 0.505127, 0.154541, 0.095892, -0.009808, -0.015300, 1.000000, 0.000687, 0.000190, 0.000214, -140.685720, -79.199912, 44.023365, , , 0.000000, , , 
24879, , 9.611266, -1.091172, -1.549184, 0.060339, -0.141907, -0.017624, 0.130210, 0.051779, 0.056166, -0.731934, 0.505127, 0.165039, 0.096112, -0.010875, -0.015524, 1.000000, 0.000651, 0.000259, 0.000281, -140.339782, -79.197900, 43.757977, , , 0.000000, , , 
24880, , 9.658362, -1.070837, -1.542667, 0.094263, -0.139046, 0.025109, 0.149325, 0.059928, 0.058448, -0.734131, 0.507324, 0.152344, 0.096582, -0.010669, -0.015464, 1.000000, 0.000747, 0.000300, 0.000292, -140.017017, -79.200365, 43.514649, , , 0.000000, , , 
24881, , 9.687902, -1.169981, -1.503032, 0.013267, -0.092891, 0.060235, 0.169086, 0.071555, 0.058931, -0.734131, 0.507324, 0.154541, 0.096877, -0.011659, -0.015075, 1.000000, 0.000845, 0.000358, 0.000295, -139.623119, -79.202128, 43.217998, , , 0.000000, , , 
24882, , 9.635252, -1.195777, -1.514188, -0.013551, -0.117530, 0.013132, 0.213097, 0.082277, 0.048518, -0.736328, 0.502930, 0.152344, 0.096349, -0.011918, -0.015194, 0.999999, 0.001065, 0.000411, 0.000243, -139.242267, -79.217405, 42.952759, , , 0.000000, , , 
24883, , 9.582498, -1.241265, -1.449618, -0.051811, -0.067228, -0.042366, 0.254449, 0.083170, 0.045039, -0.729736, 0.507324, 0.150146, 0.095822, -0.012373, -0.014552, 0.999999, 0.001272, 0.000416, 0.000225, -138.809715, -79.234555, 42.668015, , , 0.000000, , , 
24884, , 9.575149, -1.298166, -1.347280, -0.092485, 0.027484, -0.056943, 0.309032, 0.082189, 0.035130, -0.736572, 0.509277, 0.150146, 0.095748, -0.012944, -0.013532, 0.999999, 0.001545, 0.000411, 0.000176, -138.402243, -79.254147, 42.431677, , , 0.000000, , , 
24885, , 9.598252, -1.255189, -1.234359, -0.029754, 0.123996, -0.055161, 0.347763, 0.084820, 0.016372, -0.731934, 0.511719, 0.141602, 0.095978, -0.012523, -0.012406, 0.999998, 0.001739, 0.000424, 0.000082, -137.969038, -79.279048, 42.201863, , , 0.000000, , , 
24886, , 9.647509, -1.228978, -0.889362, 0.038502, 0.457704, -0.057443, 0.132842, 0.059545, 0.036359, -0.736328, 0.502930, 0.144043, 0.096475, -0.012266, -0.008930, 1.000000, 0.000664, 0.000298, 0.000182, -137.703386, -79.287944, 42.007172, , , 0.000000, , , 
24887, , 9.363610, -1.255860, -1.315190, -0.061071, 0.000006, -0.274324, -0.170325, 0.030658, 0.061516, -0.736572, 0.509277, 0.152344, 0.093638, -0.012541, -0.013156, 1.000000, -0.000852, 0.000153, 0.000308, -137.568208, -79.277541, 41.780535, , , 0.000000, , , 
24888, , 9.442511, -1.242187, -1.246999, -0.026838, 0.076328, -0.207871, -0.219801, 0.010077, 0.065440, -0.729736, 0.505127, 0.150391, 0.094429, -0.012405, -0.012461, 0.999999, -0.001099, 0.000050, 0.000327, -137.540572, -79.254105, 41.622460, , , 0.000000, , , 
24889, , 9.522066, -1.339188, -1.344893, -0.116825, 0.003406, -0.104019, -0.183738, -0.005705, 0.048484, -0.736328, 0.505127, 0.145996, 0.095224, -0.013381, -0.013434, 1.000000, -0.000919, -0.000029, 0.000242, -137.557034, -79.226781, 41.533535, , , 0.000000, , , 
24890, , 9.615443, -1.285543, -1.348018, -0.048936, 0.008585, -0.018605, -0.126653, -0.000465, 0.035728, -0.731934, 0.505127, 0.150391, 0.096157, -0.012847, -0.013472, 1.000000, -0.000633, -0.000002, 0.000179, -137.564060, -79.210363, 41.465056, , , 0.000000, , , 
24891, , 9.688917, -1.240677, -1.376576, 0.004498, -0.014685, 0.051851, -0.068061, -0.001749, 0.022615, -0.731934, 0.505127, 0.150391, 0.096891, -0.012401, -0.013761, 1.000000, -0.000340, -0.000009, 0.000113, -137.548870, -79.201992, 41.414099, , , 0.000000, , , 
24892, , 9.712813, -1.282805, -1.403762, -0.035196, -0.032585, 0.084412, -0.024264, 0.001009, 0.010859, -0.727539, 0.509521, 0.150146, 0.097129, -0.012824, -0.014037, 1.000000, -0.000121, 0.000005, 0.000054, -137.549412, -79.195824, 41.398747, , , 0.000000, , , 
24893, , 9.730722, -1.165350, -1.547408, 0.070717, -0.186063, 0.106982, 0.027509, 0.014721, 0.005313, -0.725342, 0.507324, 0.152344, 0.097306, -0.011649, -0.015483, 1.000000, 0.000138, 0.000074, 0.000027, -137.479366, -79.195206, 41.350402, , , 0.000000, , , 
24894, , 9.667139, -1.143000, -1.459351, 0.093008, -0.111860, 0.029496, 0.051222, 0.030170, 0.002223, -0.736572, 0.511475, 0.150146, 0.096669, -0.011425, -0.014611, 1.000000, 0.000256, 0.000151, 0.000011, -137.396484, -79.204674, 41.294167, , , 0.000000, , , 
24895, , 9.675848, -1.114071, -1.359970, 0.134063, -0.019390, 0.020642, 0.001410, 0.039393, 0.012709, -0.729736, 0.505127, 0.150391, 0.096757, -0.011134, -0.013619, 1.000000, 0.000007, 0.000197, 0.000064, -137.277508, -79.209766, 41.180850, , , 0.000000, , , 
