PacketCounter, SampleTimeFine, Acc_X, Acc_Y, Acc_Z, FreeAcc_X, FreeAcc_Y, FreeAcc_Z, Gyr_X, Gyr_Y, Gyr_Z, Mag_X, Mag_Y, Mag_Z, VelInc_X, VelInc_Y, VelInc_Z, OriInc_q0, OriInc_q1, OriInc_q2, OriInc_q3, Roll, Pitch, Yaw, Latitude, Longitude, Altitude, Vel_X, Vel_Y, Vel_Z
24441, , 9.707590, -0.045019, -2.753236, 0.000000, 0.000000, 0.277884, 0.010744, 0.078962, -0.021882, -0.687988, -0.443604, 0.312744, 0.097065, -0.000459, -0.027571, 1.000000, 0.000054, 0.000395, -0.000109, -179.045539, -74.141040, -77.877268, , , 0.000000, , , 
24442, , 9.682645, -0.011918, -2.826165, 0.000000, 0.000000, 0.273985, 0.044119, 0.091839, -0.023922, -0.679199, -0.447998, 0.312988, 0.096813, -0.000125, -0.028306, 1.000000, 0.000221, 0.000459, -0.000120, -179.747953, -73.702087, -77.625985, , , 0.000000, , , 
24443, , 9.776739, -0.015038, -2.768629, -0.004303, -0.048478, 0.348404, 0.063516, 0.095238, -0.025653, -0.689941, -0.450195, 0.302490, 0.097754, -0.000154, -0.027733, 1.000000, 0.000318, 0.000476, -0.000128, -179.396193, -73.953939, -77.780759, , , 0.000000, , , 
24444, , 9.862643, -0.014470, -2.595915, 0.035642, -0.223293, 0.383369, 0.066857, 0.109061, -0.028122, -0.681396, -0.445801, 0.310791, 0.098612, -0.000150, -0.026013, 1.000000, 0.000334, 0.000545, -0.000141, -179.411756, -74.016591, -77.724715, , , 0.000000, , , 
24445, , 9.899143, 0.028723, -2.555284, 0.002637, -0.266778, 0.407495, 0.059094, 0.163376, -0.032437, -0.685547, -0.447998, 0.306641, 0.098971, 0.000279, -0.025634, 1.000000, 0.000295, 0.000817, -0.000162, -179.440701, -74.111185, -77.659960, , , 0.000000, , , 
24446, , 9.912142, 0.045953, -2.635075, -0.033315, -0.179399, 0.442211, 0.065375, 0.227920, -0.035539, -0.685791, -0.445801, 0.302490, 0.099091, 0.000451, -0.026464, 0.999999, 0.000327, 0.001140, -0.000178, -179.470711, -74.241961, -77.589836, , , 0.000000, , , 
24447, , 9.976192, 0.078932, -2.727325, -0.085241, -0.091932, 0.529129, 0.070666, 0.265342, -0.043587, -0.689941, -0.450195, 0.300537, 0.099726, 0.000777, -0.027405, 0.999999, 0.000353, 0.001327, -0.000218, -179.515038, -74.394837, -77.501791, , , 0.000000, , , 
24448, , 10.218836, 0.069335, -2.830626, -0.088584, -0.026720, 0.790766, 0.084556, 0.309707, -0.046179, -0.687744, -0.447998, 0.298340, 0.102145, 0.000682, -0.028464, 0.999999, 0.000423, 0.001549, -0.000231, -179.556712, -74.572494, -77.408261, , , 0.000000, , , 
24449, , 10.510585, 0.056997, -2.760719, -0.050074, -0.128834, 1.053681, 0.081992, 0.374013, -0.048830, -0.692139, -0.447998, 0.300293, 0.105054, 0.000556, -0.027803, 0.999998, 0.000410, 0.001870, -0.000244, -179.608611, -74.787779, -77.305918, , , 0.000000, , , 
24450, , 10.680199, -0.069235, -2.619963, 0.106324, -0.231201, 1.181433, 0.081334, 0.453254, -0.052853, -0.690186, -0.441406, 0.296143, 0.106742, -0.000710, -0.026442, 0.999997, 0.000407, 0.002266, -0.000264, -179.668297, -75.047660, -77.195839, , , 0.000000, , , 
24451, , 10.782125, -0.145198, -2.377947, 0.230510, -0.413058, 1.219352, 0.097039, 0.533031, -0.055647, -0.687744, -0.447998, 0.291992, 0.107757, -0.001470, -0.024067, 0.999996, 0.000485, 0.002665, -0.000278, -179.730137, -75.355243, -77.074560, , , 0.000000, , , 
24452, , 10.718145, -0.145510, -2.156156, 0.265401, -0.544021, 1.104366, 0.093492, 0.611637, -0.052400, -0.692139, -0.447998, 0.285889, 0.107114, -0.001473, -0.021890, 0.999995, 0.000467, 0.003058, -0.000262, -179.787194, -75.705809, -76.960312, , , 0.000000, , , 
24453, , 10.588677, -0.095754, -2.078505, 0.214629, -0.528031, 0.963403, 0.020960, 0.664052, -0.044584, -0.696533, -0.447998, 0.291992, 0.105817, -0.000979, -0.021137, 0.999994, 0.000105, 0.003320, -0.000223, -179.870529, -76.092870, -76.861889, , , 0.000000, , , 
24454, , 10.465204, -0.160693, -2.129845, 0.246922, -0.364217, 0.859167, -0.007653, 0.688336, -0.034267, -0.700684, -0.447754, 0.277344, 0.104578, -0.001626, -0.021658, 0.999994, -0.000038, 0.003442, -0.000171, -179.952902, -76.487287, -76.781614, , , 0.000000, , , 
24455, , 10.336824, -0.031776, -2.312999, 0.058489, -0.114290, 0.779003, 0.006878, 0.747126, -0.026267, -0.694336, -0.447998, 0.273193, 0.103281, -0.000331, -0.023516, 0.999993, 0.000034, 0.003736, -0.000131, 179.995356, -76.926796, -76.723990, , , 0.000000, , , 
24456, , 10.254739, 0.057079, -2.394564, -0.067083, 0.042510, 0.717741, 0.008005, 0.832928, -0.028304, -0.702881, -0.452148, 0.269287, 0.102447, 0.000557, -0.024372, 0.999991, 0.000040, 0.004165, -0.000142, 179.927349, -77.404018, -76.649537, , , 0.000000, , , 
24457, , 10.158500, 0.171110, -2.382655, -0.199542, 0.117627, 0.620290, 0.003653, 0.924465, -0.026651, -0.702881, -0.447754, 0.260742, 0.101474, 0.001698, -0.024296, 0.999989, 0.000018, 0.004622, -0.000133, 179.861982, -77.945213, -76.580155, , , 0.000000, , , 
24458, , 10.105621, 0.229221, -2.364455, -0.275380, 0.197884, 0.562803, -0.046835, 1.041419, -0.017847, -0.707275, -0.447754, 0.258545, 0.100931, 0.002278, -0.024171, 0.999986, -0.000234, 0.005207, -0.000089, 179.776981, -78.541867, -76.520743, , , 0.000000, , , 
24459, , 10.208018, 0.324588, -2.081300, -0.323044, -0.000677, 0.605337, -0.074612, 1.148105, -0.018530, -0.713623, -0.449951, 0.246094, 0.101959, 0.003229, -0.021400, 0.999983, -0.000373, 0.005740, -0.000093, 179.657554, -79.208041, -76.442824, , , 0.000000, , , 
24460, , 10.299836, 0.305917, -1.677739, -0.234813, -0.277460, 0.620985, -0.118706, 1.225024, -0.022807, -0.711670, -0.449951, 0.239990, 0.102893, 0.003037, -0.017410, 0.999981, -0.000594, 0.006125, -0.000114, 179.490302, -79.909812, -76.341918, , , 0.000000, , , 
24461, , 10.345509, 0.175777, -1.325124, -0.051997, -0.461574, 0.608401, -0.192324, 1.312049, -0.029399, -0.722412, -0.451904, 0.227539, 0.103365, 0.001729, -0.013931, 0.999978, -0.000962, 0.006560, -0.000147, 179.197960, -80.670465, -76.158090, , , 0.000000, , , 
24462, , 10.416266, -0.079925, -0.995540, 0.247047, -0.593205, 0.631517, -0.234658, 1.388416, -0.035820, -0.724365, -0.454102, 0.214844, 0.104090, -0.000830, -0.010677, 0.999975, -0.001173, 0.006942, -0.000179, 178.846573, -81.465505, -75.938497, , , 0.000000, , , 
24463, , 10.411236, -0.234718, -1.165040, 0.333644, -0.244312, 0.657903, -0.193862, 1.469662, -0.045143, -0.724365, -0.458496, 0.208740, 0.104022, -0.002382, -0.012413, 0.999973, -0.000969, 0.007348, -0.000226, 178.366887, -82.323930, -75.567064, , , 0.000000, , , 
24464, , 10.202072, -0.330901, -1.605935, 0.295467, 0.385386, 0.508785, -0.108303, 1.569922, -0.048884, -0.728760, -0.451904, 0.191895, 0.101890, -0.003343, -0.016858, 0.999969, -0.000542, 0.007850, -0.000244, 177.849931, -83.222023, -75.108533, , , 0.000000, , , 
24465, , 9.855653, -0.516690, -1.963793, 0.357595, 0.974009, 0.196239, -0.036931, 1.607808, -0.049924, -0.728760, -0.456055, 0.181641, 0.098393, -0.005195, -0.020428, 0.999968, -0.000185, 0.008039, -0.000250, 177.204945, -84.157616, -74.480983, , , 0.000000, , , 
24466, , 9.702750, -0.389848, -1.848389, 0.224841, 1.003340, 0.018521, 0.070991, 1.557782, -0.052927, -0.735352, -0.451904, 0.168945, 0.096879, -0.003917, -0.019240, 0.999970, 0.000355, 0.007789, -0.000265, 176.398084, -85.047101, -73.629698, , , 0.000000, , , 
24467, , 9.824705, -0.108215, -1.264526, 0.050326, 0.512051, 0.080187, 0.075639, 1.514466, -0.051067, -0.733154, -0.456055, 0.158691, 0.098147, -0.001102, -0.013389, 0.999971, 0.000378, 0.007572, -0.000255, 175.398755, -85.911206, -72.582987, , , 0.000000, , , 
24468, , 9.858638, 0.003316, -0.923490, -0.010964, 0.301089, 0.084429, -0.043778, 1.526449, -0.053720, -0.737549, -0.451660, 0.150146, 0.098512, 0.000005, -0.009987, 0.999971, -0.000219, 0.007632, -0.000269, 173.579014, -86.778906, -70.784724, , , 0.000000, , , 
24469, , 9.921873, -0.002848, -0.865028, -0.020457, 0.390497, 0.139045, -0.073288, 1.545329, -0.053572, -0.737549, -0.453857, 0.137695, 0.099148, -0.000058, -0.009417, 0.999970, -0.000366, 0.007727, -0.000268, 170.645482, -87.646304, -67.889168, , , 0.000000, , , 
24470, , 9.957066, 0.085376, -0.687376, -0.095585, 0.350617, 0.161717, -0.086864, 1.598269, -0.054534, -0.750488, -0.453857, 0.123047, 0.099512, 0.000823, -0.007670, 0.999968, -0.000434, 0.007991, -0.000273, 163.545432, -88.533618, -60.835189, , , 0.000000, , , 
24471, , 9.924114, 0.202731, -0.354977, -0.168678, 0.158788, 0.117024, -0.096637, 1.671585, -0.057327, -0.746094, -0.456055, 0.110596, 0.099207, 0.001997, -0.004380, 0.999965, -0.000483, 0.008358, -0.000287, 136.500840, -89.363335, -33.841992, , , 0.000000, , , 
24472, , 9.932183, 0.278695, -0.153431, -0.229641, 0.111597, 0.121185, -0.107858, 1.725622, -0.060588, -0.743896, -0.456055, 0.100098, 0.099304, 0.002756, -0.002393, 0.999963, -0.000539, 0.008628, -0.000303, 41.884897, -89.291656, 60.716077, , , 0.000000, , , 
24473, , 9.940358, 0.282597, 0.151380, -0.199259, -0.018843, 0.130696, -0.107267, 1.762756, -0.063068, -0.743896, -0.456055, 0.083496, 0.099413, 0.002795, 0.000636, 0.999961, -0.000536, 0.008814, -0.000315, 18.242696, -88.397885, 84.300882, , , 0.000000, , , 
24474, , 9.960877, 0.123779, 0.224865, -0.060316, 0.119166, 0.150466, -0.081536, 1.799629, -0.073028, -0.743896, -0.460205, 0.073242, 0.099624, 0.001202, 0.001352, 0.999959, -0.000408, 0.008998, -0.000365, 11.981009, -87.390043, 90.519806, , , 0.000000, , , 
24475, , 9.951616, -0.007933, 0.341979, 0.061743, 0.210734, 0.142238, -0.034199, 1.878364, -0.087095, -0.752686, -0.455811, 0.060547, 0.099542, -0.000122, 0.002485, 0.999956, -0.000171, 0.009392, -0.000435, 9.243228, -86.338965, 93.241866, , , 0.000000, , , 
24476, , 9.836185, -0.125370, 0.191472, 0.111867, 0.563758, 0.009196, -0.027553, 1.984152, -0.098086, -0.748535, -0.453613, 0.037354, 0.098374, -0.001302, 0.000939, 0.999951, -0.000138, 0.009921, -0.000490, 7.711975, -85.206172, 94.761395, , , 0.000000, , , 
24477, , 9.505442, -0.386569, -0.116409, 0.269875, 1.080151, -0.364213, -0.038775, 2.057069, -0.105979, -0.754639, -0.462158, 0.027344, 0.095034, -0.003916, -0.002141, 0.999947, -0.000194, 0.010285, -0.000530, 6.704598, -84.053168, 95.749843, , , 0.000000, , , 
24478, , 9.266280, -0.673678, -0.147818, 0.514296, 1.334731, -0.631689, -0.021704, 2.010684, -0.096932, -0.750488, -0.464355, 0.010498, 0.092638, -0.006782, -0.002409, 0.999949, -0.000109, 0.010053, -0.000485, 6.055032, -82.902082, 96.391096, , , 0.000000, , , 
24479, , 9.259420, -0.678524, 0.225882, 0.566831, 1.145140, -0.614161, 0.037108, 1.952347, -0.089242, -0.748291, -0.462158, 0.002197, 0.092607, -0.006827, 0.001354, 0.999952, 0.000186, 0.009762, -0.000446, 5.503652, -81.829333, 96.968545, , , 0.000000, , , 
24480, , 9.502389, -0.452217, 0.718143, 0.415612, 0.835497, -0.318377, 0.039427, 1.958069, -0.078330, -0.754883, -0.457764, -0.018799, 0.095086, -0.004561, 0.006250, 0.999952, 0.000197, 0.009790, -0.000392, 5.139588, -80.708117, 97.359720, , , 0.000000, , , 
24481, , 9.587717, -0.163002, 1.279465, 0.215370, 0.424540, -0.150491, 0.121663, 2.041895, -0.073238, -0.752686, -0.462158, -0.031250, 0.096001, -0.001673, 0.011814, 0.999948, 0.000608, 0.010209, -0.000366, 4.715859, -79.599274, 97.856870, , , 0.000000, , , 
24482, , 9.425477, 0.400579, 1.862865, -0.239153, -0.091215, -0.200115, 0.178503, 2.070264, -0.065813, -0.748291, -0.462158, -0.045898, 0.094442, 0.003959, 0.017655, 0.999946, 0.000892, 0.010351, -0.000329, 4.519858, -78.413933, 98.160723, , , 0.000000, , , 
24483, , 9.281801, 0.737833, 1.414974, -0.697569, 0.416927, -0.429998, 0.135077, 2.059119, -0.076482, -0.748535, -0.462158, -0.062500, 0.092960, 0.007334, 0.013198, 0.999947, 0.000675, 0.010295, -0.000382, 4.257088, -77.293731, 98.504890, , , 0.000000, , , 
24484, , 8.830566, 0.798024, 0.548775, -0.963075, 1.311833, -1.079661, 0.027731, 2.045151, -0.073632, -0.754883, -0.464355, -0.074951, 0.088359, 0.007947, 0.004585, 0.999948, 0.000139, 0.010226, -0.000368, 4.089930, -76.122014, 98.692986, , , 0.000000, , , 
24485, , 8.721016, 0.499651, 0.646471, -0.679943, 1.416087, -1.195629, -0.078204, 1.931127, -0.062146, -0.744141, -0.466553, -0.091553, 0.087269, 0.004972, 0.005620, 0.999953, -0.000391, 0.009655, -0.000311, 3.827247, -75.094888, 98.919057, , , 0.000000, , , 
24486, , 8.808964, 0.052387, 1.534557, -0.087641, 0.863833, -0.913295, -0.078314, 1.889792, -0.075665, -0.743896, -0.470703, -0.106201, 0.088230, 0.000496, 0.014512, 0.999955, -0.000392, 0.009449, -0.000378, 3.682089, -74.011645, 99.023122, , , 0.000000, , , 
24487, , 9.030213, -0.109830, 2.638178, 0.266385, 0.081355, -0.408619, -0.059040, 1.915052, -0.094746, -0.746338, -0.464355, -0.116699, 0.090549, -0.001134, 0.025516, 0.999954, -0.000295, 0.009575, -0.000474, 3.572150, -73.002975, 99.107999, , , 0.000000, , , 
24488, , 9.124983, -0.069309, 3.076583, 0.282814, -0.124078, -0.187879, -0.073884, 2.027088, -0.123370, -0.737793, -0.464355, -0.135498, 0.091555, -0.000738, 0.029839, 0.999948, -0.000369, 0.010135, -0.000617, 3.525437, -71.839435, 99.112618, , , 0.000000, , , 
24489, , 9.208128, 0.079055, 3.117202, 0.109375, 0.016860, -0.091737, -0.037540, 2.161567, -0.146259, -0.737549, -0.468506, -0.145752, 0.092412, 0.000729, 0.030174, 0.999941, -0.000188, 0.010808, -0.000731, 3.487626, -70.686751, 99.129879, , , 0.000000, , , 
24490, , 9.161990, 0.411880, 2.874590, -0.294539, 0.364332, -0.213124, 0.097352, 2.239307, -0.177370, -0.733398, -0.468506, -0.164551, 0.091938, 0.004024, 0.027720, 0.999937, 0.000487, 0.011196, -0.000887, 3.604003, -69.399964, 99.065454, , , 0.000000, , , 
24491, , 8.657021, 0.621071, 3.262701, -0.412940, -0.014364, -0.549824, 0.184365, 2.238143, -0.209947, -0.726807, -0.472900, -0.177002, 0.086935, 0.006090, 0.031661, 0.999936, 0.000922, 0.011190, -0.001050, 3.784627, -68.199969, 98.993709, , , 0.000000, , , 
24492, , 7.958899, -0.034718, 1.606692, -0.101571, 1.552564, -1.843763, -0.035449, 2.001777, -0.181824, -0.724609, -0.475098, -0.189453, 0.079744, -0.000417, 0.015269, 0.999949, -0.000177, 0.010009, -0.000909, 3.831573, -67.048767, 98.921044, , , 0.000000, , , 
24493, , 8.262366, -1.360406, -0.112919, 0.793845, 3.629869, -2.307869, 0.158487, 1.706012, -0.081766, -0.720459, -0.470703, -0.202148, 0.082604, -0.013637, -0.001845, 0.999963, 0.000792, 0.008530, -0.000409, 3.877545, -66.163022, 98.988139, , , 0.000000, , , 
24494, , 8.642575, 0.305830, 3.948429, -0.025915, -0.065426, -0.306311, 0.333886, 1.454766, -0.000513, -0.718262, -0.472900, -0.208496, 0.086710, 0.002993, 0.038859, 0.999972, 0.001669, 0.007274, -0.000003, 3.943196, -65.331610, 99.126066, , , 0.000000, , , 
24495, , 8.994621, 1.081060, 4.985215, -0.617056, -0.877741, 0.471796, -0.192023, 1.656451, 0.015542, -0.720459, -0.470703, -0.223145, 0.090354, 0.010865, 0.049095, 0.999965, -0.000960, 0.008282, 0.000078, 3.649512, -64.502263, 99.332101, , , 0.000000, , , 
24496, , 8.222304, 0.389443, 3.589350, -0.224405, 0.333963, -0.841777, -0.126823, 1.830302, 0.001019, -0.709717, -0.468506, -0.229492, 0.082547, 0.003917, 0.035137, 0.999958, -0.000634, 0.009151, 0.000005, 3.442630, -63.455893, 99.481612, , , 0.000000, , , 
24497, , 7.688308, 0.685894, 3.697500, -0.484065, 0.068746, -1.268011, 0.027250, 1.576692, -0.003091, -0.707520, -0.470703, -0.243896, 0.077171, 0.006853, 0.036368, 0.999969, 0.000136, 0.007883, -0.000015, 3.349267, -62.666005, 99.612376, , , 0.000000, , , 
24498, , 8.267456, 0.733929, 4.208427, -0.500967, 0.005879, -0.520325, -0.140364, 1.363379, -0.002648, -0.707520, -0.470703, -0.256592, 0.082959, 0.007367, 0.041514, 0.999977, -0.000702, 0.006817, -0.000013, 3.186784, -61.886424, 99.705307, , , 0.000000, , , 
24499, , 9.017287, 0.440449, 5.091256, -0.128057, -0.234041, 0.548475, -0.227631, 1.277778, 0.018753, -0.699219, -0.466309, -0.262939, 0.090495, 0.004470, 0.050330, 0.999979, -0.001138, 0.006389, 0.000094, 2.973117, -61.262333, 99.817048, , , 0.000000, , , 
24500, , 9.286640, 0.467254, 5.898982, -0.059780, -0.667555, 1.178532, -0.240234, 1.349663, 0.037622, -0.699219, -0.466309, -0.273193, 0.093261, 0.004760, 0.058356, 0.999976, -0.001201, 0.006748, 0.000188, 2.727564, -60.491566, 99.940865, , , 0.000000, , , 
24501, , 9.177039, 0.495741, 5.843287, -0.138830, -0.545926, 1.063350, -0.323879, 1.502098, 0.059616, -0.699219, -0.466309, -0.294189, 0.092204, 0.005079, 0.057733, 0.999970, -0.001619, 0.007510, 0.000298, 2.431744, -59.715848, 100.069541, , , 0.000000, , , 
24502, , 8.953062, 0.274035, 5.272159, -0.072581, 0.027341, 0.580563, -0.363496, 1.607114, 0.089579, -0.692627, -0.470703, -0.304443, 0.089949, 0.002876, 0.051995, 0.999966, -0.001817, 0.008035, 0.000448, 2.076072, -58.798401, 100.241409, , , 0.000000, , , 
24503, , 8.731758, 0.252136, 5.231100, -0.097338, 0.094557, 0.368214, -0.352455, 1.640122, 0.114825, -0.688477, -0.462158, -0.321533, 0.087741, 0.002663, 0.051588, 0.999965, -0.001762, 0.008201, 0.000574, 1.719594, -57.958327, 100.454073, , , 0.000000, , , 
24504, , 8.521681, 0.342430, 5.601093, -0.164607, -0.182626, 0.387588, -0.461611, 1.639137, 0.137424, -0.684082, -0.466309, -0.331787, 0.085670, 0.003611, 0.055302, 0.999964, -0.002308, 0.008196, 0.000687, 1.292529, -57.022256, 100.647258, , , 0.000000, , , 
24505, , 7.911417, 0.231547, 5.311086, -0.118125, -0.110294, -0.282562, -0.689414, 1.682466, 0.134564, -0.673584, -0.457764, -0.346680, 0.079555, 0.002550, 0.052434, 0.999958, -0.003447, 0.008412, 0.000673, 0.755996, -56.147649, 100.845154, , , 0.000000, , , 
24506, , 6.584130, -1.250561, 2.379734, 0.914622, 1.960874, -3.038076, -0.832899, 1.546537, 0.128230, -0.676025, -0.451416, -0.348877, 0.066031, -0.012365, 0.023339, 0.999961, -0.004164, 0.007733, 0.000641, 0.160262, -55.262897, 100.989024, , , 0.000000, , , 
24507, , 6.654914, -1.829679, 2.907278, 1.525444, 1.758478, -2.694531, -0.114664, 1.071228, 0.094589, -0.665283, -0.451416, -0.361328, 0.066712, -0.018249, 0.028726, 0.999985, -0.000573, 0.005356, 0.000473, 0.012644, -54.726468, 101.089865, , , 0.000000, , , 
24508, , 7.869757, -0.021081, 5.857901, 0.053860, -0.184335, -0.003971, -0.033370, 0.948699, 0.101301, -0.665283, -0.451416, -0.367676, 0.078974, -0.000161, 0.058205, 0.999989, -0.000167, 0.004743, 0.000507, -0.087653, -54.183708, 101.190125, , , 0.000000, , , 
24509, , 7.882220, -0.146081, 5.544045, 0.092485, 0.182940, -0.177125, -0.198003, 1.168637, 0.100125, -0.658691, -0.451416, -0.371826, 0.079145, -0.001367, 0.054980, 0.999982, -0.000990, 0.005843, 0.000501, -0.297774, -53.583108, 101.296711, , , 0.000000, , , 
24510, , 7.245388, -0.256808, 5.131056, 0.179873, 0.259938, -0.936392, -0.009226, 1.090844, 0.077122, -0.658936, -0.449219, -0.382324, 0.072733, -0.002538, 0.050914, 0.999985, -0.000046, 0.005454, 0.000386, -0.357926, -52.958810, 101.365731, , , 0.000000, , , 
24511, , 7.672796, -0.202442, 5.383221, 0.091615, 0.382362, -0.445904, -0.025871, 0.925542, 0.043534, -0.654541, -0.451416, -0.388672, 0.076976, -0.002001, 0.053477, 0.999989, -0.000129, 0.004628, 0.000218, -0.416209, -52.495152, 101.416577, , , 0.000000, , , 
24512, , 7.939664, -0.150122, 5.881182, 0.061967, 0.226834, 0.066240, -0.034690, 0.860003, 0.024844, -0.658936, -0.449219, -0.388672, 0.079649, -0.001481, 0.058470, 0.999991, -0.000173, 0.004300, 0.000124, -0.450056, -52.003414, 101.434915, , , 0.000000, , , 
24513, , 7.913178, 0.202460, 6.466689, -0.213226, -0.241158, 0.403632, -0.032259, 0.855694, 0.028222, -0.652344, -0.449219, -0.399170, 0.079407, 0.002046, 0.064327, 0.999991, -0.000161, 0.004278, 0.000141, -0.500100, -51.595943, 101.489884, , , 0.000000, , , 
24514, , 7.865872, 0.383443, 6.771839, -0.363738, -0.453289, 0.557379, -0.087182, 0.882263, 0.039827, -0.647949, -0.453613, -0.405273, 0.078956, 0.003880, 0.067369, 0.999990, -0.000436, 0.004411, 0.000199, -0.573034, -51.091543, 101.520112, , , 0.000000, , , 
24515, , 7.692075, 0.483108, 6.917898, -0.443996, -0.615135, 0.516032, -0.108743, 0.913083, 0.040600, -0.645996, -0.451416, -0.409424, 0.077235, 0.004884, 0.068824, 0.999989, -0.000544, 0.004565, 0.000203, -0.665906, -50.642741, 101.589668, , , 0.000000, , , 
24516, , 7.496376, 0.430312, 7.159442, -0.362631, -0.819390, 0.523402, -0.148666, 0.919789, 0.038986, -0.644043, -0.445068, -0.417969, 0.075291, 0.004371, 0.071245, 0.999989, -0.000743, 0.004599, 0.000195, -0.770412, -50.116951, 101.615676, , , 0.000000, , , 
24517, , 7.402945, 0.162619, 7.255036, -0.104260, -0.819943, 0.520832, -0.176161, 0.922259, 0.035001, -0.639648, -0.445068, -0.426270, 0.074363, 0.001703, 0.072206, 0.999989, -0.000881, 0.004611, 0.000175, -0.888439, -49.655288, 101.665712, , , 0.000000, , , 
24518, , 7.369200, 0.022695, 7.376466, 0.021761, -0.814545, 0.582173, -0.146110, 0.927616, 0.040113, -0.633301, -0.445068, -0.428467, 0.074033, 0.000295, 0.073422, 0.999989, -0.000731, 0.004638, 0.000201, -0.989117, -49.125126, 101.689097, , , 0.000000, , , 
24519, , 7.237975, 0.041728, 7.486308, 0.003384, -0.899038, 0.561592, -0.168769, 0.962917, 0.057205, -0.631104, -0.440674, -0.436768, 0.072739, 0.000501, 0.074513, 0.999988, -0.000844, 0.004815, 0.000286, -1.114908, -48.621062, 101.741775, , , 0.000000, , , 
24520, , 7.177117, -0.083838, 7.219406, 0.061735, -0.623192, 0.348258, -0.214879, 0.987370, 0.074651, -0.626953, -0.442871, -0.445068, 0.072127, -0.000734, 0.071839, 0.999987, -0.001074, 0.004937, 0.000373, -1.273167, -48.056353, 101.789954, , , 0.000000, , , 
24521, , 7.045417, -0.167228, 7.021362, 0.097785, -0.462297, 0.124178, -0.208543, 0.971587, 0.083390, -0.622559, -0.438477, -0.449463, 0.070795, -0.001570, 0.069872, 0.999988, -0.001043, 0.004858, 0.000417, -1.435519, -47.535469, 101.854743, , , 0.000000, , , 
24522, , 6.914227, -0.025416, 6.970083, -0.066838, -0.448034, -0.005381, -0.189774, 0.973271, 0.072156, -0.620605, -0.436523, -0.455811, 0.069480, -0.000163, 0.069363, 0.999988, -0.000949, 0.004866, 0.000361, -1.573491, -46.978860, 101.895787, , , 0.000000, , , 
24523, , 6.650376, -0.165619, 6.575172, 0.022999, -0.230549, -0.462103, -0.251581, 0.968061, 0.066684, -0.618408, -0.436523, -0.464111, 0.066822, -0.001552, 0.065431, 0.999987, -0.001258, 0.004840, 0.000333, -1.745499, -46.452317, 101.932119, , , 0.000000, , , 
24524, , 6.455969, -0.374384, 6.306214, 0.189674, -0.049049, -0.782236, -0.184391, 0.926752, 0.055581, -0.609863, -0.436523, -0.470459, 0.064852, -0.003668, 0.062765, 0.999989, -0.000922, 0.004634, 0.000278, -1.867278, -45.922682, 101.955806, , , 0.000000, , , 
24525, , 6.294412, -0.288731, 6.318728, 0.103574, -0.112059, -0.890494, -0.122631, 0.854520, 0.038976, -0.603516, -0.434326, -0.472656, 0.063214, -0.002836, 0.062919, 0.999991, -0.000613, 0.004273, 0.000195, -1.947697, -45.460979, 101.983229, , , 0.000000, , , 
24526, , 6.640921, -0.423232, 6.560012, 0.189811, 0.052563, -0.470554, -0.087297, 0.801746, 0.044792, -0.605469, -0.436523, -0.480957, 0.066672, -0.004189, 0.065335, 0.999992, -0.000436, 0.004009, 0.000224, -2.007994, -45.003249, 101.999144, , , 0.000000, , , 
24527, , 6.891298, -0.578924, 7.190375, 0.355956, -0.112515, 0.156600, -0.037190, 0.841264, 0.044602, -0.601318, -0.436523, -0.487061, 0.069216, -0.005760, 0.071614, 0.999991, -0.000186, 0.004206, 0.000223, -2.038241, -44.539194, 102.023460, , , 0.000000, , , 
24528, , 6.757360, -0.592875, 7.131765, 0.362854, -0.079356, 0.022803, -0.003667, 0.897155, 0.042388, -0.596924, -0.438721, -0.493408, 0.067894, -0.005913, 0.071014, 0.999990, -0.000018, 0.004486, 0.000212, -2.046501, -44.027025, 102.033845, , , 0.000000, , , 
24529, , 6.606735, -0.481577, 7.314090, 0.277882, -0.248286, 0.048207, 0.009368, 0.900952, 0.034602, -0.592773, -0.434326, -0.499756, 0.066397, -0.004808, 0.072842, 0.999990, 0.000047, 0.004505, 0.000173, -2.046935, -43.534477, 102.076524, , , 0.000000, , , 
24530, , 6.451123, -0.312495, 7.331480, 0.119594, -0.315284, -0.047910, 0.015117, 0.904497, 0.032263, -0.590576, -0.434326, -0.499756, 0.064842, -0.003120, 0.073022, 0.999990, 0.000076, 0.004522, 0.000161, -2.038552, -43.018442, 102.078623, , , 0.000000, , , 
24531, , 6.261555, -0.182534, 7.567994, 0.027508, -0.550350, -0.003988, -0.007777, 0.927692, 0.025086, -0.586182, -0.434326, -0.501709, 0.062966, -0.001815, 0.075388, 0.999989, -0.000039, 0.004638, 0.000125, -2.051864, -42.507762, 102.102482, , , 0.000000, , , 
24532, , 6.130483, -0.039561, 7.628214, -0.104477, -0.622743, -0.046695, 0.005601, 0.935021, 0.012255, -0.582031, -0.434326, -0.514404, 0.061661, -0.000394, 0.075994, 0.999989, 0.000028, 0.004675, 0.000061, -2.037926, -41.974801, 102.088322, , , 0.000000, , , 
24533, , 6.018415, 0.061741, 7.483120, -0.219438, -0.540165, -0.227200, 0.005203, 0.962746, 0.010209, -0.573486, -0.432373, -0.512207, 0.060543, 0.000619, 0.074540, 0.999988, 0.000026, 0.004814, 0.000051, -2.030883, -41.440977, 102.099793, , , 0.000000, , , 
24534, , 5.878383, 0.074096, 7.536304, -0.221986, -0.589988, -0.275462, -0.000921, 0.964437, 0.019539, -0.573242, -0.436523, -0.518555, 0.059146, 0.000747, 0.075078, 0.999988, -0.000005, 0.004822, 0.000098, -2.024309, -40.891194, 102.090948, , , 0.000000, , , 
24535, , 5.920861, 0.124563, 7.606887, -0.289133, -0.525482, -0.191023, -0.011198, 0.947031, 0.017931, -0.566895, -0.434326, -0.526855, 0.059568, 0.001255, 0.075787, 0.999989, -0.000056, 0.004735, 0.000090, -2.021499, -40.357366, 102.098003, , , 0.000000, , , 
24536, , 5.925252, -0.016145, 7.479684, -0.185025, -0.325832, -0.277833, -0.047329, 0.960871, 0.024922, -0.560547, -0.430176, -0.524902, 0.059611, -0.000136, 0.074511, 0.999988, -0.000237, 0.004804, 0.000125, -2.044308, -39.809702, 102.093442, , , 0.000000, , , 
24537, , 5.815313, -0.312066, 7.345013, 0.086802, -0.181231, -0.441272, -0.089713, 0.948718, 0.025311, -0.556152, -0.432373, -0.535156, 0.058501, -0.003080, 0.073175, 0.999989, -0.000449, 0.004744, 0.000127, -2.091033, -39.271158, 102.096149, , , 0.000000, , , 
24538, , 5.759523, -0.482134, 7.136027, 0.222593, 0.022232, -0.632447, 0.003047, 0.904449, 0.006605, -0.554199, -0.430176, -0.545654, 0.057917, -0.004821, 0.071099, 0.999990, 0.000015, 0.004522, 0.000033, -2.077142, -38.756354, 102.079146, , , 0.000000, , , 
24539, , 5.761316, -0.256127, 7.464664, 0.017114, -0.141603, -0.380897, 0.034863, 0.876943, -0.011532, -0.547607, -0.432373, -0.545654, 0.057940, -0.002578, 0.074393, 0.999990, 0.000174, 0.004385, -0.000058, -2.044391, -38.260358, 102.064033, , , 0.000000, , , 
24540, , 5.697709, -0.137887, 7.677039, -0.081090, -0.259943, -0.255226, 0.030109, 0.896364, -0.013063, -0.543213, -0.432373, -0.556152, 0.057320, -0.001394, 0.076514, 0.999990, 0.000151, 0.004482, -0.000065, -2.007146, -37.750695, 102.033958, , , 0.000000, , , 
24541, , 5.577638, -0.085070, 7.519365, -0.140198, -0.184786, -0.452999, 0.059850, 0.873716, -0.007315, -0.534668, -0.436768, -0.553955, 0.056104, -0.000875, 0.074949, 0.999990, 0.000299, 0.004369, -0.000037, -1.961313, -37.253270, 102.024166, , , 0.000000, , , 
24542, , 5.616498, -0.163600, 7.471268, -0.084722, -0.031658, -0.464802, 0.048599, 0.846406, -0.003932, -0.536621, -0.436768, -0.560303, 0.056480, -0.001655, 0.074474, 0.999991, 0.000243, 0.004232, -0.000020, -1.919398, -36.772101, 102.003287, , , 0.000000, , , 
24543, , 5.631800, -0.125483, 7.388588, -0.141887, 0.100918, -0.523269, 0.070207, 0.861335, 0.001971, -0.530273, -0.434570, -0.562256, 0.056636, -0.001280, 0.073642, 0.999991, 0.000351, 0.004307, 0.000010, -1.860437, -36.281226, 102.007384, , , 0.000000, , , 
24544, , 5.642745, 0.087802, 7.221337, -0.380584, 0.245619, -0.658984, 0.017742, 0.872978, 0.014255, -0.523682, -0.436768, -0.566406, 0.056742, 0.000876, 0.071966, 0.999990, 0.000089, 0.004365, 0.000071, -1.844337, -35.784589, 101.999971, , , 0.000000, , , 
24545, , 5.517481, -0.020725, 7.509460, -0.242309, 0.079851, -0.497681, -0.010086, 0.903733, 0.019405, -0.517334, -0.434570, -0.572754, 0.055513, -0.000198, 0.074844, 0.999990, -0.000050, 0.004519, 0.000097, -1.840651, -35.272017, 102.009287, , , 0.000000, , , 
24546, , 5.311146, -0.206386, 8.130326, 0.011077, -0.318876, -0.104415, -0.023822, 0.947652, 0.018521, -0.513184, -0.430420, -0.574951, 0.053496, -0.002049, 0.081051, 0.999989, -0.000119, 0.004738, 0.000093, -1.849285, -34.732653, 102.003391, , , 0.000000, , , 
24547, , 5.014408, -0.123683, 8.295623, -0.022732, -0.576602, -0.135742, 0.028720, 0.940210, 0.007239, -0.510742, -0.441162, -0.578857, 0.050533, -0.001247, 0.082719, 0.999989, 0.000144, 0.004701, 0.000036, -1.822544, -34.194596, 101.990925, , , 0.000000, , , 
24548, , 4.899089, -0.003742, 8.384193, -0.128153, -0.654788, -0.125068, 0.019638, 0.899652, 0.000306, -0.506592, -0.438965, -0.585205, 0.049367, -0.000046, 0.083620, 0.999990, 0.000098, 0.004498, 0.000002, -1.800195, -33.683130, 101.974018, , , 0.000000, , , 
24549, , 4.886719, -0.010848, 8.552689, -0.116675, -0.670915, 0.014025, 0.026535, 0.875608, -0.006787, -0.496094, -0.430420, -0.587646, 0.049241, -0.000121, 0.085312, 0.999990, 0.000133, 0.004378, -0.000034, -1.756519, -33.186452, 101.976091, , , 0.000000, , , 
24550, , 4.861980, -0.014045, 8.357253, -0.140243, -0.501783, -0.158119, -0.003787, 0.866634, -0.013402, -0.498047, -0.430420, -0.593750, 0.048981, -0.000142, 0.083361, 0.999991, -0.000019, 0.004333, -0.000067, -1.743490, -32.694237, 101.951361, , , 0.000000, , , 
24551, , 4.717413, -0.157878, 8.031488, -0.018540, -0.338941, -0.503125, -0.056810, 0.857527, -0.013603, -0.487305, -0.437012, -0.597900, 0.047518, -0.001559, 0.080112, 0.999991, -0.000284, 0.004288, -0.000068, -1.764113, -32.200168, 101.923172, , , 0.000000, , , 
24552, , 4.669959, -0.295465, 8.183036, 0.118512, -0.356967, -0.393773, -0.048884, 0.806044, -0.008952, -0.483154, -0.432617, -0.604248, 0.047029, -0.002937, 0.081642, 0.999992, -0.000244, 0.004030, -0.000045, -1.779611, -31.742665, 101.902847, , , 0.000000, , , 
24553, , 4.865256, -0.214675, 8.711124, 0.028040, -0.408178, 0.158900, -0.051665, 0.788853, 0.007473, -0.480713, -0.434814, -0.604004, 0.048996, -0.002122, 0.086919, 0.999992, -0.000258, 0.003944, 0.000037, -1.796102, -31.281870, 101.896918, , , 0.000000, , , 
24554, , 4.737403, -0.240613, 9.114386, 0.086346, -0.640501, 0.441807, -0.061096, 0.799372, 0.007940, -0.478516, -0.437012, -0.608154, 0.047738, -0.002376, 0.090954, 0.999992, -0.000305, 0.003997, 0.000040, -1.824677, -30.827939, 101.887885, , , 0.000000, , , 
24555, , 4.670850, -0.138457, 9.286884, -0.007140, -0.724429, 0.558275, -0.021458, 0.757697, 0.005447, -0.472168, -0.437012, -0.614502, 0.047060, -0.001373, 0.092691, 0.999993, -0.000107, 0.003788, 0.000027, -1.820663, -30.390080, 101.888095, , , 0.000000, , , 
24556, , 4.475637, -0.091903, 9.355704, -0.030619, -0.858839, 0.523171, -0.043518, 0.719273, -0.000898, -0.463623, -0.437012, -0.612305, 0.045092, -0.000899, 0.093395, 0.999994, -0.000218, 0.003596, -0.000004, -1.837106, -29.982271, 101.874837, , , 0.000000, , , 
24557, , 4.264544, -0.202411, 9.310477, 0.097332, -0.923262, 0.387805, -0.034081, 0.653175, -0.009009, -0.463623, -0.432617, -0.614502, 0.042949, -0.002010, 0.092965, 0.999995, -0.000170, 0.003266, -0.000045, -1.832185, -29.596093, 101.863870, , , 0.000000, , , 
24558, , 3.876483, -0.341201, 8.918914, 0.264176, -0.977144, -0.134582, 0.023003, 0.553667, -0.020813, -0.459473, -0.430664, -0.618896, 0.039011, -0.003426, 0.089081, 0.999996, 0.000115, 0.002768, -0.000104, -1.805954, -29.283534, 101.841144, , , 0.000000, , , 
24559, , 3.967989, -0.437641, 9.427505, 0.369293, -1.078486, 0.361528, -0.031474, 0.402232, -0.013537, -0.457275, -0.432617, -0.623047, 0.039869, -0.004364, 0.094196, 0.999998, -0.000157, 0.002011, -0.000068, -1.810394, -29.040144, 101.827696, , , 0.000000, , , 
24560, , 3.948885, -0.519576, 9.838455, 0.473873, -1.240011, 0.718056, 0.012924, 0.345628, -0.014920, -0.461426, -0.434814, -0.620850, 0.039658, -0.005205, 0.098316, 0.999999, 0.000065, 0.001728, -0.000075, -1.794149, -28.846683, 101.813366, , , 0.000000, , , 
24561, , 3.887203, -0.359706, 9.883989, 0.326614, -1.311271, 0.728034, 0.001605, 0.243039, -0.006826, -0.450684, -0.439209, -0.618652, 0.038992, -0.003599, 0.098793, 0.999999, 0.000008, 0.001215, -0.000034, -1.784159, -28.691318, 101.812802, , , 0.000000, , , 
24562, , 3.945304, -0.324589, 10.280461, 0.306102, -1.438113, 1.105040, 0.010072, 0.125000, -0.013508, -0.455078, -0.432617, -0.623047, 0.039517, -0.003254, 0.102780, 1.000000, 0.000050, 0.000625, -0.000068, -1.772249, -28.624250, 101.804036, , , 0.000000, , , 
24563, , 3.963525, -0.202454, 10.465293, 0.196592, -1.519753, 1.274448, 0.007036, 0.026781, -0.018789, -0.455078, -0.430664, -0.620850, 0.039649, -0.002032, 0.104648, 1.000000, 0.000035, 0.000134, -0.000094, -1.750583, -28.583771, 101.798447, , , 0.000000, , , 
24564, , 3.916986, -0.168246, 10.403731, 0.169393, -1.539984, 1.196784, 0.004041, -0.071023, -0.021457, -0.455078, -0.434814, -0.618652, 0.039133, -0.001689, 0.104051, 1.000000, 0.000020, -0.000355, -0.000107, -1.741488, -28.629147, 101.788437, , , 0.000000, , , 
24565, , 3.824063, -0.157832, 10.391279, 0.178158, -1.623482, 1.139919, -0.009903, -0.173753, -0.027603, -0.455078, -0.434814, -0.625000, 0.038150, -0.001578, 0.103946, 1.000000, -0.000050, -0.000869, -0.000138, -1.735400, -28.700855, 101.780657, , , 0.000000, , , 
24566, , 3.845920, -0.189171, 10.367234, 0.208128, -1.612617, 1.126348, -0.018805, -0.280344, -0.026937, -0.452881, -0.432861, -0.620850, 0.038314, -0.001887, 0.103726, 0.999999, -0.000094, -0.001402, -0.000135, -1.739619, -28.866262, 101.771225, , , 0.000000, , , 
24567, , 3.894607, -0.393465, 10.292429, 0.398834, -1.524898, 1.085584, -0.050450, -0.392336, -0.026751, -0.461426, -0.434814, -0.618652, 0.038744, -0.003914, 0.103001, 0.999998, -0.000252, -0.001962, -0.000134, -1.758233, -29.049253, 101.762908, , , 0.000000, , , 
24568, , 3.990921, -0.468127, 10.373218, 0.467284, -1.517821, 1.197664, -0.031679, -0.519692, -0.018758, -0.468018, -0.434814, -0.622803, 0.039639, -0.004669, 0.103836, 0.999997, -0.000158, -0.002598, -0.000094, -1.774776, -29.351594, 101.763748, , , 0.000000, , , 
24569, , 4.106369, -0.522397, 10.175178, 0.495072, -1.367157, 1.075600, -0.029101, -0.630105, -0.021260, -0.468018, -0.434814, -0.616699, 0.040742, -0.005213, 0.101881, 0.999995, -0.000146, -0.003151, -0.000106, -1.788290, -29.670888, 101.766756, , , 0.000000, , , 
24570, , 4.108534, -0.426011, 9.997564, 0.401031, -1.370736, 0.909837, -0.012392, -0.753449, -0.017551, -0.472168, -0.432617, -0.612549, 0.040708, -0.004257, 0.100130, 0.999993, -0.000062, -0.003767, -0.000088, -1.796685, -30.107105, 101.773418, , , 0.000000, , , 
24571, , 4.190148, -0.432908, 9.819174, 0.394803, -1.288709, 0.786536, -0.026203, -0.884926, -0.016126, -0.474609, -0.428467, -0.606445, 0.041466, -0.004320, 0.098376, 0.999990, -0.000131, -0.004425, -0.000081, -1.813585, -30.565832, 101.784103, , , 0.000000, , , 
24572, , 4.287822, -0.431144, 9.613843, 0.377776, -1.201475, 0.647241, -0.038594, -0.992456, -0.014131, -0.480957, -0.432617, -0.604248, 0.042400, -0.004296, 0.096350, 0.999988, -0.000193, -0.004962, -0.000071, -1.841067, -31.138863, 101.798524, , , 0.000000, , , 
24573, , 4.314967, -0.418959, 9.354661, 0.357728, -1.145366, 0.427589, -0.038005, -1.091279, -0.019361, -0.489502, -0.434814, -0.595703, 0.042638, -0.004176, 0.093781, 0.999985, -0.000190, -0.005456, -0.000097, -1.868703, -31.711437, 101.813460, , , 0.000000, , , 
24574, , 4.374786, -0.461320, 9.158773, 0.394168, -1.101153, 0.280159, -0.033605, -1.200805, -0.016760, -0.498047, -0.434814, -0.587402, 0.043197, -0.004601, 0.091849, 0.999982, -0.000168, -0.006004, -0.000084, -1.895559, -32.403810, 101.831579, , , 0.000000, , , 
24575, , 4.443842, -0.523774, 8.921491, 0.446523, -1.021133, 0.105557, -0.023480, -1.303334, -0.020978, -0.506836, -0.430420, -0.589600, 0.043855, -0.005232, 0.089503, 0.999979, -0.000117, -0.006517, -0.000105, -1.911799, -33.101479, 101.852553, , , 0.000000, , , 
24576, , 4.535259, -0.450330, 8.718594, 0.369072, -0.982106, -0.030924, 0.017683, -1.414852, -0.024657, -0.512939, -0.441162, -0.578857, 0.044734, -0.004517, 0.087503, 0.999975, 0.000088, -0.007074, -0.000123, -1.909733, -33.916588, 101.870869, , , 0.000000, , , 
24577, , 4.686195, -0.339024, 8.541705, 0.247104, -0.913454, -0.110173, 0.002888, -1.522298, -0.027486, -0.521729, -0.434570, -0.572754, 0.046210, -0.003398, 0.085770, 0.999971, 0.000014, -0.007611, -0.000137, -1.915369, -34.733786, 101.886382, , , 0.000000, , , 
24578, , 4.900274, -0.420164, 8.421673, 0.311783, -0.808261, -0.098716, 0.016389, -1.617000, -0.032514, -0.526123, -0.430176, -0.566650, 0.048319, -0.004216, 0.084609, 0.999967, 0.000082, -0.008085, -0.000163, -1.914296, -35.664795, 101.904373, , , 0.000000, , , 
24579, , 5.195645, -0.354289, 8.211865, 0.210959, -0.613573, -0.110540, 0.030715, -1.723415, -0.027150, -0.534668, -0.436768, -0.555908, 0.051246, -0.003563, 0.082562, 0.999963, 0.000154, -0.008617, -0.000136, -1.911830, -36.593795, 101.927758, , , 0.000000, , , 
24580, , 5.410423, -0.420081, 7.884068, 0.245722, -0.406000, -0.253400, 0.015098, -1.804376, -0.026083, -0.549561, -0.436768, -0.547607, 0.053389, -0.004214, 0.079324, 0.999959, 0.000075, -0.009022, -0.000130, -1.917772, -37.631951, 101.955314, , , 0.000000, , , 
24581, , 5.437697, -0.456129, 7.497080, 0.274329, -0.304424, -0.549191, 0.028371, -1.871826, -0.025508, -0.560303, -0.436523, -0.535156, 0.053672, -0.004579, 0.075475, 0.999956, 0.000142, -0.009359, -0.000128, -1.915648, -38.646748, 101.978698, , , 0.000000, , , 
24582, , 5.603578, -0.434266, 7.185974, 0.233306, -0.163184, -0.694403, 0.045302, -1.979513, -0.026912, -0.566895, -0.432373, -0.522705, 0.055320, -0.004366, 0.072409, 0.999951, 0.000227, -0.009897, -0.000135, -1.907870, -39.785176, 102.010674, , , 0.000000, , , 
24583, , 5.847817, -0.358012, 7.092275, 0.147677, -0.107073, -0.615447, 0.052409, -2.061335, -0.032452, -0.579834, -0.432129, -0.512207, 0.057742, -0.003608, 0.071519, 0.999947, 0.000262, -0.010306, -0.000162, -1.898195, -40.913959, 102.042024, , , 0.000000, , , 
24584, , 5.998772, -0.231239, 6.996636, 0.031115, -0.145888, -0.594975, 0.049724, -2.118304, -0.032704, -0.588379, -0.432129, -0.499756, 0.059242, -0.002340, 0.070596, 0.999944, 0.000249, -0.010591, -0.000164, -1.888680, -42.131964, 102.073712, , , 0.000000, , , 
24585, , 6.243312, -0.186796, 6.868139, -0.025467, -0.078430, -0.529640, 0.018436, -2.182236, -0.027117, -0.605713, -0.432129, -0.483154, 0.061679, -0.001883, 0.069357, 0.999940, 0.000092, -0.010911, -0.000136, -1.909730, -43.331383, 102.118112, , , 0.000000, , , 
24586, , 6.446485, -0.279542, 6.583401, 0.045208, 0.076206, -0.595034, 0.052644, -2.227327, -0.025969, -0.609863, -0.438477, -0.476562, 0.063726, -0.002821, 0.066546, 0.999938, 0.000263, -0.011136, -0.000130, -1.906495, -44.611658, 102.159781, , , 0.000000, , , 
24587, , 6.487050, -0.258333, 6.195511, 0.015448, 0.176619, -0.840619, 0.071802, -2.271454, -0.030489, -0.620605, -0.436279, -0.462158, 0.064161, -0.002616, 0.062686, 0.999935, 0.000359, -0.011357, -0.000152, -1.896869, -45.866412, 102.200165, , , 0.000000, , , 
24588, , 6.606889, -0.244706, 5.912708, -0.003363, 0.254872, -0.946886, 0.107357, -2.338752, -0.032077, -0.629150, -0.438477, -0.449463, 0.065371, -0.002490, 0.059893, 0.999931, 0.000537, -0.011693, -0.000160, -1.862877, -47.210608, 102.240822, , , 0.000000, , , 
24589, , 6.693147, -0.193700, 5.639712, -0.054885, 0.304651, -1.063823, 0.089851, -2.386665, -0.027219, -0.639893, -0.438477, -0.430664, 0.066252, -0.001972, 0.057190, 0.999929, 0.000449, -0.011933, -0.000136, -1.846098, -48.528335, 102.279104, , , 0.000000, , , 
24590, , 6.770721, -0.384398, 5.257128, 0.119295, 0.470410, -1.245965, 0.131710, -2.416307, -0.026282, -0.650391, -0.442871, -0.417969, 0.067065, -0.003888, 0.053382, 0.999927, 0.000659, -0.012081, -0.000131, -1.805088, -49.916802, 102.327199, , , 0.000000, , , 
24591, , 6.849123, -0.118634, 5.016533, -0.135520, 0.454614, -1.335576, 0.220261, -2.481514, -0.029026, -0.656982, -0.440674, -0.401367, 0.067862, -0.001252, 0.051009, 0.999922, 0.001101, -0.012407, -0.000145, -1.711567, -51.293615, 102.361444, , , 0.000000, , , 
24592, , 7.090275, 0.228036, 4.982990, -0.459991, 0.351940, -1.163139, 0.187227, -2.537302, -0.021011, -0.672119, -0.438477, -0.380615, 0.070263, 0.002226, 0.050726, 0.999919, 0.000936, -0.012686, -0.000105, -1.644426, -52.751306, 102.414840, , , 0.000000, , , 
24593, , 7.352773, 0.121584, 4.579501, -0.397272, 0.635791, -1.182289, 0.161740, -2.544981, -0.021162, -0.680664, -0.442627, -0.363770, 0.072937, 0.001171, 0.046727, 0.999919, 0.000809, -0.012725, -0.000106, -1.595366, -54.167592, 102.462805, , , 0.000000, , , 
24594, , 7.459694, 0.099923, 4.190035, -0.395019, 0.798119, -1.302906, 0.217234, -2.558942, -0.029519, -0.689209, -0.440430, -0.344971, 0.074053, 0.000942, 0.042851, 0.999918, 0.001086, -0.012794, -0.000148, -1.504622, -55.637814, 102.506376, , , 0.000000, , , 
24595, , 7.624040, 0.177792, 4.123380, -0.449363, 0.716275, -1.184795, 0.181761, -2.633272, -0.035432, -0.695557, -0.442627, -0.328125, 0.075689, 0.001726, 0.042234, 0.999913, 0.000909, -0.013166, -0.000177, -1.432317, -57.111260, 102.538039, , , 0.000000, , , 
24596, , 7.818464, 0.115947, 3.741131, -0.418594, 0.923886, -1.204281, 0.149768, -2.661928, -0.028696, -0.706299, -0.444824, -0.311523, 0.077678, 0.001120, 0.038448, 0.999911, 0.000749, -0.013309, -0.000143, -1.381716, -58.640466, 102.581855, , , 0.000000, , , 
24597, , 8.012184, -0.076206, 3.427571, -0.251638, 1.104755, -1.172036, 0.154283, -2.659699, -0.028322, -0.710449, -0.447021, -0.290527, 0.079656, -0.000800, 0.035336, 0.999911, 0.000771, -0.013298, -0.000142, -1.328783, -60.129333, 102.612225, , , 0.000000, , , 
24598, , 8.064845, -0.101738, 3.180392, -0.220386, 1.123668, -1.219001, 0.213504, -2.626989, -0.032458, -0.720947, -0.453369, -0.271484, 0.080221, -0.001065, 0.032858, 0.999913, 0.001067, -0.013135, -0.000162, -1.235742, -61.638537, 102.647880, , , 0.000000, , , 
24599, , 8.193773, -0.076156, 2.935466, -0.245813, 1.174764, -1.192025, 0.273317, -2.631443, -0.032985, -0.723145, -0.451172, -0.250732, 0.081542, -0.000816, 0.030428, 0.999912, 0.001367, -0.013157, -0.000165, -1.090185, -63.116415, 102.644148, , , 0.000000, , , 
24600, , 8.311943, -0.040445, 2.882986, -0.245401, 1.044344, -1.080772, 0.293906, -2.614771, -0.031027, -0.731689, -0.453369, -0.227783, 0.082733, -0.000461, 0.029913, 0.999913, 0.001469, -0.013073, -0.000155, -0.942315, -64.618584, 102.669075, , , 0.000000, , , 
24601, , 8.226196, 0.234115, 2.605125, -0.498994, 0.983662, -1.251671, 0.327676, -2.588261, -0.041945, -0.736084, -0.448975, -0.213135, 0.081916, 0.002280, 0.027117, 0.999915, 0.001638, -0.012941, -0.000210, -0.733848, -66.078839, 102.634621, , , 0.000000, , , 
24602, , 8.408911, -0.053191, 2.361651, -0.223328, 1.114643, -1.152820, 0.210696, -2.632174, -0.042878, -0.738281, -0.451172, -0.192383, 0.083768, -0.000576, 0.024720, 0.999913, 0.001053, -0.013160, -0.000214, -0.599774, -67.591023, 102.622108, , , 0.000000, , , 
24603, , 8.626775, -0.187007, 2.297716, -0.065490, 1.057263, -0.946535, 0.245389, -2.735810, -0.043925, -0.742432, -0.451172, -0.173584, 0.085942, -0.001918, 0.024152, 0.999906, 0.001227, -0.013679, -0.000220, -0.427835, -69.134311, 102.579035, , , 0.000000, , , 
24604, , 8.888183, 0.026552, 1.902093, -0.311424, 1.226277, -0.811994, 0.279929, -2.755753, -0.045273, -0.749023, -0.444824, -0.146484, 0.088609, 0.000218, 0.020243, 0.999904, 0.001400, -0.013778, -0.000226, -0.224810, -70.717134, 102.535566, , , 0.000000, , , 
24605, , 9.040515, -0.023891, 1.733377, -0.247691, 1.205425, -0.690375, 0.264576, -2.687729, -0.024065, -0.753174, -0.449219, -0.131836, 0.090161, -0.000274, 0.018546, 0.999909, 0.001323, -0.013438, -0.000120, -0.053459, -72.237564, 102.513625, , , 0.000000, , , 
24606, , 9.025261, 0.104662, 1.886646, -0.281821, 0.791888, -0.630414, 0.286086, -2.668165, -0.003884, -0.750977, -0.453369, -0.106689, 0.089990, 0.001017, 0.020070, 0.999910, 0.001430, -0.013340, -0.000019, 0.115688, -73.769978, 102.509978, , , 0.000000, , , 
24607, , 9.114344, 0.424034, 2.054338, -0.505559, 0.352913, -0.480694, 0.302992, -2.640812, 0.021659, -0.755127, -0.453369, -0.083740, 0.090861, 0.004218, 0.021751, 0.999912, 0.001515, -0.013204, 0.000108, 0.261836, -75.264126, 102.530606, , , 0.000000, , , 
24608, , 9.101543, 0.540744, 1.839184, -0.607664, 0.290562, -0.536119, 0.264939, -2.541747, 0.019485, -0.755127, -0.453613, -0.064941, 0.090771, 0.005391, 0.019554, 0.999918, 0.001325, -0.012708, 0.000097, 0.396354, -76.724025, 102.550146, , , 0.000000, , , 
24609, , 9.076575, 0.375149, 1.301901, -0.507715, 0.605825, -0.669898, 0.188704, -2.524067, 0.025053, -0.763672, -0.455566, -0.048096, 0.090591, 0.003750, 0.014167, 0.999920, 0.000943, -0.012620, 0.000125, 0.517886, -78.157681, 102.531716, , , 0.000000, , , 
24610, , 9.050829, 0.188478, 0.901602, -0.362398, 0.801281, -0.757950, 0.145670, -2.483584, 0.028962, -0.761475, -0.453613, -0.023193, 0.090387, 0.001891, 0.010140, 0.999923, 0.000728, -0.012418, 0.000145, 0.578441, -79.584212, 102.556736, , , 0.000000, , , 
24611, , 9.061213, -0.105314, 0.828561, -0.043273, 0.726057, -0.742397, 0.127910, -2.403260, 0.017323, -0.757324, -0.449219, -0.010742, 0.090504, -0.001051, 0.009373, 0.999928, 0.000640, -0.012016, 0.000087, 0.705233, -80.947674, 102.486094, , , 0.000000, , , 
24612, , 9.041077, -0.119643, 0.569150, -0.038796, 0.766437, -0.785691, 0.113532, -2.333785, 0.010434, -0.765869, -0.451416, 0.008057, 0.090336, -0.001195, 0.006745, 0.999932, 0.000568, -0.011669, 0.000052, 0.841692, -82.288133, 102.415528, , , 0.000000, , , 
24613, , 8.964897, -0.157738, 0.148061, -0.048288, 0.971214, -0.898259, 0.118057, -2.307892, 0.000357, -0.761719, -0.447266, 0.024658, 0.089624, -0.001578, 0.002514, 0.999933, 0.000590, -0.011539, 0.000002, 1.071519, -83.593964, 102.244227, , , 0.000000, , , 
24614, , 9.142004, -0.197115, -0.139424, -0.031819, 1.073099, -0.730940, 0.137362, -2.355486, -0.001085, -0.757080, -0.451416, 0.043701, 0.091428, -0.001971, -0.000319, 0.999930, 0.000687, -0.011777, -0.000005, 1.434811, -84.946426, 101.959749, , , 0.000000, , , 
24615, , 9.418277, -0.139216, -0.048205, -0.022923, 0.785422, -0.426309, 0.112232, -2.364025, 0.006990, -0.759277, -0.451416, 0.062500, 0.094180, -0.001389, 0.000630, 0.999930, 0.000561, -0.011820, 0.000035, 1.928719, -86.286123, 101.523722, , , 0.000000, , , 
24616, , 9.615500, -0.092562, 0.094740, 0.012728, 0.431436, -0.206182, 0.066765, -2.318070, 0.017556, -0.757080, -0.449463, 0.076904, 0.096135, -0.000918, 0.002061, 0.999933, 0.000334, -0.011590, 0.000088, 2.771180, -87.616678, 100.719857, , , 0.000000, , , 
24617, , 9.709116, 0.022704, 0.091881, -0.052361, 0.198350, -0.105483, 0.141001, -2.255248, 0.032040, -0.752930, -0.447266, 0.093750, 0.097073, 0.000241, 0.002014, 0.999936, 0.000705, -0.011276, 0.000160, 5.032291, -88.892146, 98.526173, , , 0.000000, , , 
24618, , 9.800633, 0.187323, 0.017736, -0.182725, 0.020146, -0.012173, 0.123344, -2.214095, 0.046201, -0.750732, -0.447266, 0.114502, 0.097996, 0.001895, 0.001263, 0.999939, 0.000617, -0.011070, 0.000231, 157.504440, -89.818240, -53.874784, , , 0.000000, , , 
24619, , 9.846888, 0.079155, -0.291872, -0.105692, 0.138695, 0.037108, 0.037985, -2.159143, 0.051034, -0.748291, -0.451660, 0.125000, 0.098493, 0.000817, -0.001855, 0.999942, 0.000190, -0.010796, 0.000255, 178.492426, -88.609403, -74.844966, , , 0.000000, , , 
24620, , 9.947792, -0.019303, -0.758267, -0.074725, 0.405565, 0.155269, 0.055806, -2.106516, 0.048132, -0.744141, -0.447510, 0.145752, 0.099550, -0.000167, -0.006534, 0.999944, 0.000279, -0.010532, 0.000241, 179.864643, -87.400268, -76.184706, , , 0.000000, , , 
24621, , 9.989799, 0.110476, -0.879045, -0.185126, 0.289977, 0.210242, 0.158982, -2.050556, 0.040176, -0.739746, -0.447510, 0.156250, 0.099981, 0.001131, -0.007765, 0.999947, 0.000795, -0.010253, 0.000201, -179.698234, -86.241873, -76.546400, , , 0.000000, , , 
24622, , 9.910526, 0.196880, -0.968529, -0.249305, 0.166461, 0.142331, 0.164136, -1.923764, 0.030605, -0.735352, -0.449707, 0.177246, 0.099192, 0.001991, -0.008730, 0.999953, 0.000821, -0.009619, 0.000153, -179.456522, -85.137064, -76.693333, , , 0.000000, , , 
24623, , 9.687415, 0.110437, -1.139544, -0.169662, 0.191668, -0.061353, 0.135581, -1.850847, 0.021470, -0.739746, -0.447510, 0.185547, 0.096974, 0.001122, -0.010498, 0.999957, 0.000678, -0.009254, 0.000107, -179.412018, -84.090366, -76.672589, , , 0.000000, , , 
24624, , 9.622045, -0.008588, -1.300340, -0.054188, 0.203921, -0.105609, 0.153938, -1.892255, 0.019636, -0.731201, -0.445312, 0.202148, 0.096338, -0.000067, -0.012092, 0.999955, 0.000770, -0.009461, 0.000098, -179.316037, -83.003823, -76.679358, , , 0.000000, , , 
24625, , 9.785441, -0.110981, -1.559197, 0.028473, 0.277081, 0.092740, 0.168942, -1.975516, 0.014809, -0.729004, -0.445557, 0.216797, 0.098002, -0.001090, -0.014625, 0.999951, 0.000845, -0.009877, 0.000074, -179.247510, -81.892716, -76.666403, , , 0.000000, , , 
24626, , 10.102755, -0.201092, -1.651579, 0.148432, 0.147769, 0.423835, 0.168357, -2.019847, 0.017424, -0.722412, -0.447754, 0.231445, 0.101188, -0.001989, -0.015496, 0.999949, 0.000842, -0.010099, 0.000087, -179.178931, -80.733311, -76.637248, , , 0.000000, , , 
24627, , 10.379581, -0.235746, -1.756839, 0.212234, 0.015161, 0.714843, 0.106747, -1.970795, 0.031463, -0.718018, -0.447754, 0.252441, 0.103963, -0.002332, -0.016546, 0.999951, 0.000534, -0.009854, 0.000157, -179.118196, -79.622603, -76.655295, , , 0.000000, , , 
24628, , 10.408888, -0.170638, -2.078627, 0.117105, 0.103459, 0.801789, 0.042531, -1.853667, 0.035768, -0.709473, -0.443359, 0.256348, 0.104276, -0.001683, -0.019821, 0.999957, 0.000213, -0.009268, 0.000179, -179.066494, -78.558448, -76.682286, , , 0.000000, , , 
24629, , 10.212852, -0.156459, -2.431872, 0.051216, 0.293252, 0.682529, -0.034570, -1.695202, 0.043649, -0.705078, -0.447754, 0.267090, 0.102330, -0.001546, -0.023452, 0.999964, -0.000173, -0.008476, 0.000218, -179.060023, -77.600301, -76.723106, , , 0.000000, , , 
24630, , 9.985518, -0.224184, -2.778989, 0.059798, 0.521163, 0.541360, -0.021955, -1.538700, 0.044757, -0.700928, -0.445801, 0.279541, 0.100066, -0.002222, -0.027020, 0.999970, -0.000110, -0.007693, 0.000224, -179.018241, -76.716658, -76.778105, , , 0.000000, , , 
24631, , 9.733539, -0.041534, -2.876200, -0.119878, 0.476471, 0.325001, 0.073036, -1.490903, 0.042786, -0.698730, -0.443604, 0.296143, 0.097546, -0.000384, -0.028035, 0.999972, 0.000365, -0.007454, 0.000214, -178.972001, -75.881886, -76.809110, , , 0.000000, , , 
24632, , 9.806420, 0.067896, -2.841711, -0.182955, 0.248839, 0.392623, 0.156893, -1.531133, 0.033324, -0.689941, -0.447998, 0.304443, 0.098278, 0.000717, -0.027665, 0.999970, 0.000784, -0.007656, 0.000167, -178.866915, -75.002894, -76.824173, , , 0.000000, , , 
24633, , 10.274811, 0.151880, -2.669770, -0.161577, -0.207679, 0.801025, 0.159688, -1.577200, 0.024468, -0.694336, -0.441406, 0.312744, 0.102954, 0.001552, -0.025885, 0.999969, 0.000798, -0.007886, 0.000122, -178.821998, -74.107525, -76.795946, , , 0.000000, , , 
24634, , 10.872169, 0.050283, -2.540859, 0.041320, -0.627247, 1.334733, 0.123656, -1.526836, 0.013085, -0.683594, -0.439453, 0.325195, 0.108911, 0.000525, -0.024577, 0.999971, 0.000618, -0.007634, 0.000065, -178.783563, -73.231366, -76.761618, , , 0.000000, , , 
24635, , 11.473671, -0.044982, -2.265989, 0.274961, -1.186689, 1.818981, 0.120011, -1.424905, 0.012578, -0.674805, -0.443848, 0.335693, 0.114894, -0.000429, -0.021842, 0.999974, 0.000600, -0.007124, 0.000063, -178.737282, -72.438199, -76.747027, , , 0.000000, , , 
24636, , 11.776708, -0.315910, -1.804455, 0.703434, -1.783374, 1.950381, 0.129617, -1.197539, 0.010532, -0.677246, -0.439453, 0.341797, 0.117872, -0.003142, -0.017341, 0.999982, 0.000648, -0.005988, 0.000053, -178.688197, -71.750931, -76.720135, , , 0.000000, , , 
24637, , 11.710742, -0.534643, -1.602037, 0.986209, -2.011549, 1.805139, 0.132546, -0.937035, 0.014354, -0.668457, -0.439453, 0.352295, 0.117181, -0.005328, -0.015475, 0.999989, 0.000663, -0.004685, 0.000072, -178.640741, -71.235178, -76.708933, , , 0.000000, , , 
24638, , 11.413321, -0.667452, -1.980417, 1.022523, -1.633701, 1.629177, 0.165925, -0.762953, 0.002412, -0.664307, -0.439453, 0.352295, 0.114208, -0.006657, -0.019374, 0.999992, 0.000830, -0.003815, 0.000012, -178.569298, -70.797151, -76.683636, , , 0.000000, , , 
24639, , 11.078060, -0.461997, -2.754353, 0.627261, -0.946382, 1.555415, 0.193238, -0.661328, -0.000124, -0.670898, -0.435303, 0.358398, 0.110871, -0.004594, -0.027181, 0.999994, 0.000966, -0.003307, -0.000001, -178.502507, -70.439782, -76.649466, , , 0.000000, , , 
24640, , 10.715640, -0.086868, -3.664519, 0.026937, -0.163275, 1.511334, 0.137408, -0.556237, 0.015673, -0.664062, -0.441650, 0.369141, 0.107258, -0.000835, -0.036348, 0.999996, 0.000687, -0.002781, 0.000078, -178.419785, -70.120134, -76.653503, , , 0.000000, , , 
24641, , 10.280269, 0.115528, -4.411505, -0.378383, 0.555667, 1.354519, 0.061381, -0.463237, 0.041300, -0.659912, -0.437500, 0.366943, 0.102904, 0.001190, -0.043876, 0.999997, 0.000307, -0.002316, 0.000207, -178.335947, -69.882631, -76.720510, , , 0.000000, , , 
24642, , 9.963045, 0.024640, -4.629339, -0.362762, 0.832074, 1.135806, 0.044460, -0.446102, 0.050031, -0.664307, -0.433105, 0.366699, 0.099733, 0.000282, -0.046071, 0.999997, 0.000222, -0.002231, 0.000250, -178.250869, -69.625657, -76.783950, , , 0.000000, , , 
24643, , 10.023002, -0.068838, -4.190165, -0.156840, 0.392653, 1.042900, 0.091594, -0.486288, 0.049378, -0.662109, -0.437500, 0.366943, 0.100332, -0.000645, -0.041658, 0.999997, 0.000458, -0.002431, 0.000247, -178.140070, -69.377313, -76.854993, , , 0.000000, , , 
24644, , 10.289306, -0.095159, -3.311871, 0.109126, -0.536858, 0.983008, 0.129365, -0.452510, 0.040135, -0.655762, -0.433105, 0.373047, 0.102968, -0.000910, -0.032886, 0.999997, 0.000647, -0.002263, 0.000201, -178.025878, -69.116997, -76.897886, , , 0.000000, , , 
24645, , 10.315723, -0.137057, -3.016136, 0.226752, -0.837653, 0.900707, 0.076142, -0.331478, 0.029879, -0.657959, -0.430908, 0.379150, 0.103207, -0.001344, -0.029991, 0.999999, 0.000381, -0.001657, 0.000149, -177.957622, -68.963639, -76.946787, , , 0.000000, , , 
24646, , 10.089354, -0.220206, -3.136510, 0.261401, -0.656682, 0.731584, 0.075298, -0.189856, 0.022114, -0.655762, -0.433105, 0.381348, 0.100923, -0.002179, -0.031270, 0.999999, 0.000376, -0.000949, 0.000111, -177.889880, -68.854300, -76.973356, , , 0.000000, , , 
24647, , 9.766676, -0.189858, -3.355056, 0.149238, -0.365614, 0.508381, 0.122235, -0.095275, 0.014816, -0.655762, -0.435303, 0.379395, 0.097683, -0.001871, -0.033505, 1.000000, 0.000611, -0.000476, 0.000074, -177.792155, -68.825838, -77.003427, , , 0.000000, , , 
24648, , 9.645639, 0.018814, -3.527808, -0.106929, -0.231531, 0.454692, 0.078993, -0.077103, 0.006325, -0.659912, -0.435303, 0.381348, 0.096470, 0.000205, -0.035241, 1.000000, 0.000395, -0.000386, 0.000032, -177.740098, -68.781549, -77.011018, , , 0.000000, , , 
24649, , 9.709984, 0.067286, -3.734193, -0.200144, -0.086175, 0.588515, 0.016001, -0.122911, 0.007998, -0.657715, -0.435303, 0.379395, 0.097123, 0.000680, -0.037282, 1.000000, 0.000080, -0.000615, 0.000040, -177.733200, -68.742865, -77.038813, , , 0.000000, , , 
24650, , 9.820148, 0.067420, -3.794390, -0.204443, -0.084258, 0.712916, 0.014680, -0.130435, 0.013486, -0.653564, -0.433105, 0.383545, 0.098226, 0.000684, -0.037880, 1.000000, 0.000073, -0.000652, 0.000067, -177.710966, -68.668078, -77.054086, , , 0.000000, , , 
24651, , 9.767687, 0.256182, -3.566153, -0.333979, -0.325207, 0.578341, 0.017264, -0.073884, 0.006375, -0.653564, -0.435303, 0.381348, 0.097690, 0.002568, -0.035625, 1.000000, 0.000086, -0.000369, 0.000032, -177.704280, -68.654392, -77.075026, , , 0.000000, , , 
24652, , 9.644908, 0.198197, -3.279338, -0.215946, -0.529223, 0.360359, -0.066332, -0.028633, 0.012220, -0.655518, -0.437500, 0.379395, 0.096454, 0.001977, -0.032780, 1.000000, -0.000332, -0.000143, 0.000061, -177.724668, -68.638095, -77.094504, , , 0.000000, , , 
24653, , 9.430454, -0.001466, -3.204147, -0.019334, -0.465463, 0.136332, -0.142184, -0.024146, 0.013256, -0.653564, -0.433105, 0.381348, 0.094308, -0.000031, -0.032030, 1.000000, -0.000711, -0.000121, 0.000066, -177.811154, -68.653759, -77.128795, , , 0.000000, , , 
24654, , 9.274510, -0.240103, -3.325646, 0.172481, -0.241417, 0.038510, -0.105862, -0.031110, 0.007772, -0.653320, -0.437500, 0.387695, 0.092750, -0.002415, -0.033241, 1.000000, -0.000529, -0.000156, 0.000039, -177.861108, -68.636338, -77.140994, , , 0.000000, , , 
24655, , 9.200668, -0.184857, -3.314355, 0.118653, -0.237656, -0.035118, -0.050845, -0.002431, -0.000730, -0.659912, -0.435303, 0.379395, 0.092007, -0.001857, -0.033142, 1.000000, -0.000254, -0.000012, -0.000004, -177.905712, -68.652208, -77.141509, , , 0.000000, , , 
24656, , 9.191878, -0.004915, -3.266308, -0.043138, -0.321467, -0.063113, -0.010347, 0.039653, -0.016399, -0.653320, -0.437500, 0.381592, 0.091912, -0.000058, -0.032681, 1.000000, -0.000052, 0.000198, -0.000082, -177.932727, -68.675911, -77.119661, , , 0.000000, , , 
24657, , 9.292222, 0.165767, -3.205259, -0.184532, -0.445391, 0.006382, -0.044457, 0.058221, -0.025449, -0.655762, -0.433105, 0.379395, 0.092913, 0.001639, -0.032080, 1.000000, -0.000222, 0.000291, -0.000127, -177.999500, -68.737615, -77.100350, , , 0.000000, , , 
24658, , 9.380960, 0.077673, -3.156726, -0.077433, -0.489421, 0.073051, -0.121925, 0.090132, -0.027876, -0.653564, -0.430908, 0.375000, 0.093795, 0.000744, -0.031610, 1.000000, -0.000610, 0.000451, -0.000139, -178.105255, -68.790586, -77.062736, , , 0.000000, , , 
24659, , 9.396371, -0.014965, -3.134105, 0.020676, -0.473870, 0.081231, -0.141438, 0.153862, -0.027331, -0.653564, -0.437500, 0.375244, 0.093940, -0.000185, -0.031413, 0.999999, -0.000707, 0.000769, -0.000137, -178.209462, -68.906534, -77.032104, , , 0.000000, , , 
24660, , 9.401863, -0.040501, -3.031287, 0.072529, -0.542366, 0.050674, -0.144164, 0.218695, -0.028396, -0.651123, -0.439697, 0.379395, 0.093985, -0.000440, -0.030415, 0.999999, -0.000721, 0.001093, -0.000142, -178.323840, -69.033240, -76.999034, , , 0.000000, , , 
24661, , 9.421316, -0.079864, -3.069753, 0.105671, -0.478179, 0.084337, -0.159656, 0.238831, -0.037192, -0.657715, -0.437500, 0.368896, 0.094176, -0.000841, -0.030809, 0.999999, -0.000798, 0.001194, -0.000186, -178.487008, -69.184233, -76.944058, , , 0.000000, , , 
24662, , 9.463408, -0.060466, -3.265446, 0.046465, -0.293771, 0.194029, -0.184913, 0.269463, -0.041964, -0.661865, -0.441650, 0.369141, 0.094590, -0.000655, -0.032781, 0.999999, -0.000925, 0.001347, -0.000210, -178.645826, -69.340215, -76.888576, , , 0.000000, , , 
24663, , 9.425898, -0.148711, -3.716684, 0.024551, 0.186493, 0.318844, -0.178233, 0.333341, -0.046175, -0.662109, -0.437500, 0.364746, 0.094197, -0.001542, -0.037323, 0.999998, -0.000891, 0.001667, -0.000231, -178.810116, -69.560272, -76.842443, , , 0.000000, , , 
24664, , 9.283061, -0.273151, -3.990485, 0.070833, 0.551175, 0.280126, -0.125037, 0.371243, -0.044491, -0.661865, -0.441650, 0.360840, 0.092756, -0.002777, -0.040075, 0.999998, -0.000625, 0.001856, -0.000222, -178.938953, -69.774623, -76.782589, , , 0.000000, , , 
24665, , 9.196874, -0.261788, -4.041934, 0.038630, 0.665394, 0.214471, -0.046723, 0.347130, -0.054242, -0.662109, -0.439453, 0.360596, 0.091898, -0.002652, -0.040578, 0.999998, -0.000234, 0.001736, -0.000271, -179.034434, -70.000574, -76.717466, , , 0.000000, , , 
24666, , 9.314790, -0.235350, -3.757241, 0.085812, 0.392622, 0.226036, 0.003229, 0.283362, -0.043055, -0.662109, -0.441650, 0.358643, 0.093094, -0.002373, -0.037704, 0.999999, 0.000016, 0.001417, -0.000215, -179.093034, -70.164631, -76.654382, , , 0.000000, , , 
24667, , 9.502323, -0.178984, -3.313119, 0.144985, -0.055889, 0.251045, 0.008670, 0.293878, -0.043761, -0.662109, -0.441650, 0.356689, 0.094974, -0.001809, -0.033271, 0.999999, 0.000043, 0.001469, -0.000219, -179.149516, -70.350793, -76.593779, , , 0.000000, , , 
24668, , 9.538665, -0.167406, -2.842620, 0.241946, -0.465523, 0.128100, -0.021055, 0.389885, -0.046173, -0.666260, -0.443848, 0.356689, 0.095331, -0.001699, -0.028612, 0.999998, -0.000105, 0.001949, -0.000231, -179.226929, -70.575942, -76.525698, , , 0.000000, , , 
24669, , 9.394331, -0.108975, -2.751825, 0.190057, -0.472591, -0.036274, -0.052690, 0.446270, -0.046882, -0.668457, -0.439453, 0.354492, 0.093881, -0.001119, -0.027727, 0.999997, -0.000263, 0.002231, -0.000234, -179.329909, -70.845835, -76.459911, , , 0.000000, , , 
24670, , 9.215157, -0.088603, -3.095727, 0.071234, -0.060757, -0.091497, -0.064273, 0.467375, -0.041035, -0.664062, -0.443848, 0.348389, 0.092079, -0.000915, -0.031172, 0.999997, -0.000321, 0.002337, -0.000205, -179.426285, -71.115334, -76.398226, , , 0.000000, , , 
24671, , 9.076030, -0.035331, -3.684750, -0.133730, 0.558846, -0.034009, -0.071526, 0.490578, -0.046234, -0.670654, -0.443848, 0.337891, 0.090669, -0.000388, -0.037070, 0.999997, -0.000358, 0.002453, -0.000231, -179.534799, -71.407723, -76.324862, , , 0.000000, , , 
24672, , 8.949550, -0.119509, -4.336513, -0.218423, 1.264240, 0.049761, -0.031200, 0.455207, -0.041291, -0.675049, -0.441650, 0.339844, 0.089396, -0.001220, -0.043568, 0.999997, -0.000156, 0.002276, -0.000206, -179.617505, -71.670224, -76.257836, , , 0.000000, , , 
24673, , 8.844226, -0.151109, -4.784839, -0.306728, 1.758736, 0.084308, 0.020124, 0.325064, -0.039492, -0.675049, -0.439453, 0.337646, 0.088364, -0.001524, -0.047992, 0.999999, 0.000101, 0.001625, -0.000197, -179.658287, -71.879146, -76.209093, , , 0.000000, , , 
24674, , 8.831164, -0.119955, -4.801900, -0.345711, 1.795452, 0.072599, 0.029323, 0.170476, -0.038248, -0.672607, -0.450195, 0.340088, 0.088270, -0.001209, -0.048094, 1.000000, 0.000147, 0.000852, -0.000191, -179.706678, -71.978577, -76.141892, , , 0.000000, , , 
24675, , 8.837536, -0.197375, -4.239351, -0.140914, 1.307527, -0.097565, 0.037240, 0.075625, -0.032870, -0.668457, -0.441650, 0.337891, 0.088359, -0.001980, -0.042427, 1.000000, 0.000186, 0.000378, -0.000164, -179.740279, -72.031524, -76.092386, , , 0.000000, , , 
24676, , 9.081005, -0.144566, -3.280419, 0.048145, 0.344166, -0.162510, 0.097811, 0.059100, -0.030373, -0.677002, -0.445801, 0.340088, 0.090800, -0.001443, -0.032832, 1.000000, 0.000489, 0.000296, -0.000152, -179.737183, -72.067155, -76.038137, , , 0.000000, , , 
24677, , 9.262139, 0.045752, -2.424801, 0.074777, -0.538739, -0.253758, 0.122991, 0.078750, -0.024989, -0.672852, -0.441650, 0.342041, 0.092612, 0.000461, -0.024284, 1.000000, 0.000615, 0.000394, -0.000125, -179.706239, -72.116811, -75.997255, , , 0.000000, , , 
24678, , 9.577285, 0.164945, -1.996492, 0.081572, -1.049474, -0.084916, 0.055551, 0.077883, -0.020082, -0.672852, -0.443848, 0.337891, 0.095765, 0.001645, -0.020002, 1.000000, 0.000278, 0.000389, -0.000100, -179.709101, -72.163213, -75.962228, , , 0.000000, , , 
24679, , 9.942449, 0.131008, -2.213025, 0.089615, -0.939767, 0.330080, -0.033234, 0.112661, -0.022291, -0.672607, -0.447998, 0.340088, 0.099412, 0.001295, -0.022186, 1.000000, -0.000166, 0.000563, -0.000111, -179.761222, -72.231149, -75.923783, , , 0.000000, , , 
24680, , 10.202855, -0.032505, -2.736603, 0.142711, -0.473442, 0.739266, -0.081384, 0.257604, -0.021880, -0.677002, -0.441650, 0.335693, 0.101993, -0.000347, -0.027497, 0.999999, -0.000407, 0.001288, -0.000109, -179.845202, -72.380525, -75.886000, , , 0.000000, , , 
24681, , 10.146973, -0.200525, -3.167605, 0.195620, 0.018146, 0.817282, -0.077995, 0.400846, -0.020353, -0.677002, -0.443848, 0.331543, 0.101406, -0.002028, -0.031879, 0.999998, -0.000390, 0.002004, -0.000102, -179.924272, -72.615096, -75.853883, , , 0.000000, , , 
24682, , 10.021965, -0.288253, -3.211625, 0.254062, 0.161385, 0.710935, -0.037932, 0.448894, -0.024150, -0.677002, -0.445801, 0.329590, 0.100147, -0.002901, -0.032341, 0.999997, -0.000190, 0.002244, -0.000121, -179.989548, -72.874062, -75.809719, , , 0.000000, , , 
24683, , 9.957318, -0.305861, -3.103016, 0.282503, 0.130629, 0.616761, 0.000816, 0.443239, -0.017649, -0.681396, -0.443604, 0.325439, 0.099504, -0.003067, -0.031251, 0.999998, 0.000004, 0.002216, -0.000088, 179.982938, -73.135058, -75.783084, , , 0.000000, , , 
24684, , 9.830042, -0.202261, -2.957220, 0.196717, 0.052136, 0.452505, 0.029218, 0.469095, -0.015913, -0.677002, -0.445801, 0.321289, 0.098231, -0.002026, -0.029803, 0.999997, 0.000146, 0.002345, -0.000080, 179.969417, -73.405618, -75.752928, , , 0.000000, , , 
24685, , 9.657030, -0.115612, -2.749870, 0.137548, -0.064940, 0.227733, 0.015102, 0.495861, -0.015169, -0.681396, -0.445801, 0.321289, 0.096502, -0.001161, -0.027738, 0.999997, 0.000076, 0.002479, -0.000076, 179.954049, -73.697372, -75.730579, , , 0.000000, , , 
24686, , 9.634592, -0.156476, -2.770876, 0.159337, 0.019224, 0.212364, -0.000043, 0.489666, -0.009166, -0.679199, -0.445801, 0.312744, 0.096278, -0.001569, -0.027945, 0.999997, -0.000000, 0.002448, -0.000046, 179.935485, -73.979755, -75.712735, , , 0.000000, , , 
24687, , 9.819432, -0.214270, -2.838892, 0.201082, 0.094921, 0.408704, -0.002634, 0.458023, -0.009900, -0.681396, -0.447998, 0.304443, 0.098129, -0.002148, -0.028614, 0.999997, -0.000013, 0.002290, -0.000050, 179.907766, -74.246861, -75.693548, , , 0.000000, , , 
24688, , 10.172257, -0.233617, -2.944694, 0.206741, 0.154109, 0.776642, 0.014486, 0.494766, -0.004500, -0.687744, -0.450195, 0.308838, 0.101649, -0.002336, -0.029699, 0.999997, 0.000072, 0.002474, -0.000022, 179.905684, -74.532187, -75.684249, , , 0.000000, , , 
24689, , 10.412094, -0.162463, -2.804710, 0.172524, 0.001775, 0.970373, 0.016131, 0.582227, 0.001963, -0.689941, -0.450195, 0.304688, 0.104039, -0.001621, -0.028350, 0.999996, 0.000081, 0.002911, 0.000010, 179.900721, -74.876924, -75.696537, , , 0.000000, , , 
24690, , 10.578458, -0.133515, -2.521568, 0.204449, -0.246053, 1.058242, 0.000799, 0.678901, 0.011620, -0.687744, -0.445801, 0.298340, 0.105698, -0.001329, -0.025575, 0.999994, 0.000004, 0.003395, 0.000058, 179.924289, -75.267824, -75.722000, , , 0.000000, , , 
24691, , 10.604477, -0.118285, -2.260705, 0.232859, -0.422761, 1.019956, -0.011868, 0.783467, 0.005641, -0.692139, -0.445801, 0.298340, 0.105955, -0.001181, -0.023022, 0.999992, -0.000059, 0.003917, 0.000028, 179.920480, -75.723803, -75.741219, , , 0.000000, , , 
24692, , 10.474026, 0.023275, -2.049980, 0.115892, -0.537560, 0.845880, -0.051182, 0.874586, 0.004715, -0.694336, -0.443604, 0.289795, 0.104649, 0.000230, -0.020958, 0.999990, -0.000256, 0.004373, 0.000024, 179.899171, -76.226848, -75.751062, , , 0.000000, , , 
24693, , 10.432416, 0.088571, -1.967532, 0.047241, -0.529626, 0.790654, -0.096387, 0.898228, 0.001302, -0.696533, -0.443604, 0.285645, 0.104234, 0.000877, -0.020144, 0.999990, -0.000482, 0.004491, 0.000007, 179.854425, -76.743535, -75.756663, , , 0.000000, , , 
24694, , 10.512484, -0.048415, -2.046495, 0.144376, -0.344409, 0.890701, -0.124038, 0.924486, -0.003280, -0.698730, -0.445801, 0.275391, 0.105029, -0.000499, -0.020950, 0.999989, -0.000620, 0.004622, -0.000016, 179.768213, -77.275157, -75.742686, , , 0.000000, , , 
24695, , 10.601782, -0.074192, -2.102053, 0.138103, -0.202959, 0.992898, -0.080912, 1.006583, -0.010204, -0.707520, -0.441406, 0.264648, 0.105910, -0.000756, -0.021553, 0.999987, -0.000405, 0.005033, -0.000051, 179.695608, -77.854079, -75.709753, , , 0.000000, , , 
24696, , 10.586734, -0.054767, -2.017481, 0.113308, -0.173277, 0.962660, -0.055457, 1.106296, -0.012589, -0.707520, -0.441406, 0.258545, 0.105754, -0.000560, -0.020760, 0.999985, -0.000277, 0.005531, -0.000063, 179.611919, -78.489824, -75.658260, , , 0.000000, , , 
24697, , 10.586520, -0.005519, -1.838295, 0.077960, -0.232856, 0.929385, -0.054327, 1.190914, -0.023454, -0.716064, -0.445557, 0.246094, 0.105753, -0.000073, -0.019013, 0.999982, -0.000272, 0.005955, -0.000117, 179.554443, -79.186569, -75.611723, , , 0.000000, , , 
24698, , 10.558222, -0.040475, -1.581858, 0.142546, -0.333836, 0.857206, -0.070671, 1.287330, -0.023541, -0.718018, -0.447754, 0.239746, 0.105477, -0.000423, -0.016498, 0.999979, -0.000353, 0.006437, -0.000118, 179.406070, -79.926010, -75.503548, , , 0.000000, , , 
24699, , 10.489450, -0.038081, -1.373325, 0.153598, -0.381248, 0.758279, -0.093485, 1.374628, -0.022065, -0.718018, -0.447754, 0.227295, 0.104797, -0.000399, -0.014454, 0.999976, -0.000467, 0.006873, -0.000110, 179.278947, -80.731533, -75.430346, , , 0.000000, , , 
24700, , 10.564364, 0.071202, -1.191149, 0.060904, -0.446821, 0.809193, -0.083982, 1.456435, -0.023894, -0.718018, -0.449707, 0.218994, 0.105553, 0.000694, -0.012681, 0.999973, -0.000420, 0.007282, -0.000119, 179.068031, -81.567819, -75.267121, , , 0.000000, , , 
24701, , 10.636184, 0.134153, -1.181448, -0.031244, -0.321656, 0.884762, -0.104207, 1.571939, -0.021064, -0.724609, -0.447510, 0.202148, 0.106265, 0.001324, -0.012651, 0.999969, -0.000521, 0.007860, -0.000105, 178.812697, -82.479594, -75.080285, , , 0.000000, , , 
24702, , 10.631690, 0.050161, -1.265033, -0.008197, -0.048377, 0.893873, -0.117781, 1.717580, -0.016763, -0.730957, -0.449707, 0.193848, 0.106203, 0.000485, -0.013563, 0.999963, -0.000589, 0.008588, -0.000084, 178.482143, -83.465342, -74.816788, , , 0.000000, , , 
24703, , 10.428827, 0.012702, -1.237535, -0.014150, 0.144956, 0.688153, -0.109153, 1.875949, -0.036384, -0.733154, -0.447510, 0.185547, 0.104166, 0.000101, -0.013353, 0.999956, -0.000546, 0.009380, -0.000182, 177.957764, -84.555718, -74.358682, , , 0.000000, , , 
24704, , 10.165127, -0.124837, -1.003581, 0.125975, 0.169096, 0.400284, -0.150033, 1.949877, -0.040406, -0.741943, -0.451660, 0.160645, 0.101547, -0.001277, -0.011025, 0.999952, -0.000750, 0.009749, -0.000202, 177.035520, -85.673098, -73.520965, , , 0.000000, , , 
24705, , 9.960753, -0.304744, -0.827063, 0.294783, 0.248627, 0.179392, -0.187253, 1.945819, -0.032926, -0.739990, -0.445312, 0.149902, 0.099520, -0.003072, -0.009236, 0.999952, -0.000936, 0.009729, -0.000165, 175.692514, -86.796725, -72.280286, , , 0.000000, , , 
24706, , 10.004928, -0.313938, -0.813956, 0.266080, 0.427061, 0.217429, -0.197201, 1.968701, -0.020385, -0.737549, -0.453857, 0.133545, 0.099962, -0.003158, -0.009121, 0.999951, -0.000986, 0.009843, -0.000102, 172.908339, -87.920585, -69.607953, , , 0.000000, , , 
24707, , 9.988377, -0.233141, -0.688855, 0.171402, 0.483209, 0.188827, -0.264419, 2.020412, 0.000295, -0.744141, -0.449463, 0.118896, 0.099807, -0.002341, -0.007894, 0.999948, -0.001322, 0.010102, 0.000001, 164.140473, -89.068956, -60.989130, , , 0.000000, , , 
24708, , 9.971634, -0.104449, -0.497475, 0.043604, 0.469161, 0.160585, -0.340991, 2.116366, 0.009697, -0.750732, -0.449463, 0.100098, 0.099656, -0.001049, -0.006028, 0.999943, -0.001705, 0.010582, 0.000048, 37.887725, -89.594373, 65.069336, , , 0.000000, , , 
24709, , 9.653311, -0.111499, -0.726659, -0.050240, 0.901923, -0.173862, -0.370188, 2.250670, -0.005034, -0.748291, -0.453857, 0.083496, 0.096443, -0.001132, -0.008350, 0.999935, -0.001851, 0.011253, -0.000025, 8.327955, -88.362049, 94.426679, , , 0.000000, , , 
24710, , 8.994680, -0.042266, -1.580393, -0.346817, 1.907396, -0.888475, -0.344571, 2.302467, -0.015152, -0.754883, -0.451660, 0.062500, 0.089757, -0.000458, -0.016837, 0.999932, -0.001723, 0.011512, -0.000076, 4.608770, -87.047416, 97.949470, , , 0.000000, , , 
24711, , 8.339721, 0.198856, -2.453293, -0.802823, 2.862565, -1.641561, -0.315297, 2.185409, -0.006518, -0.757080, -0.455811, 0.045898, 0.083123, 0.001946, -0.025445, 0.999939, -0.001576, 0.010927, -0.000033, 3.038678, -85.791191, 99.337590, , , 0.000000, , , 
24712, , 8.097370, 0.191392, -1.834229, -0.690824, 2.409477, -1.895407, -0.331171, 1.980376, 0.030591, -0.755127, -0.449463, 0.031006, 0.080786, 0.001895, -0.019146, 0.999950, -0.001656, 0.009902, 0.000153, 2.026351, -84.656060, 100.161427, , , 0.000000, , , 
24713, , 8.556567, 0.069715, -0.329481, -0.297605, 1.165205, -1.334482, -0.410803, 1.819158, 0.065386, -0.757080, -0.451416, 0.018555, 0.085531, 0.000717, -0.004074, 0.999956, -0.002054, 0.009096, 0.000327, 1.062874, -83.612935, 100.894875, , , 0.000000, , , 
24714, , 9.170802, -0.026439, 1.310675, 0.078619, -0.189273, -0.551048, -0.522098, 1.751796, 0.099123, -0.759277, -0.451416, -0.004395, 0.091818, -0.000186, 0.012303, 0.999958, -0.002610, 0.008759, 0.000496, 0.193477, -82.607540, 101.467689, , , 0.000000, , , 
24715, , 9.683160, -0.230346, 2.037726, 0.355401, -0.626050, 0.058885, -0.646108, 1.840999, 0.107730, -0.755127, -0.449219, -0.012695, 0.097015, -0.002187, 0.019492, 0.999952, -0.003230, 0.009205, 0.000539, -0.663072, -81.551370, 101.962578, , , 0.000000, , , 
24716, , 9.924474, -0.689887, 1.888081, 0.711107, -0.171999, 0.286681, -0.509762, 2.043339, 0.090381, -0.759521, -0.447021, -0.037842, 0.099434, -0.006808, 0.017883, 0.999944, -0.002549, 0.010217, 0.000452, -1.170244, -80.377545, 102.178805, , , 0.000000, , , 
24717, , 10.018781, -0.651459, 1.881809, 0.611286, 0.048943, 0.383453, -0.256477, 2.225317, 0.063863, -0.761719, -0.447021, -0.050293, 0.100391, -0.006459, 0.017710, 0.999937, -0.001282, 0.011126, 0.000319, -1.423405, -79.103027, 102.296486, , , 0.000000, , , 
24718, , 9.939972, -0.245460, 2.176683, 0.216645, -0.099977, 0.362750, -0.154008, 2.358361, 0.044754, -0.759521, -0.449219, -0.069092, 0.099648, -0.002416, 0.020595, 0.999930, -0.000770, 0.011792, 0.000224, -1.476023, -77.749164, 102.258584, , , 0.000000, , , 
24719, , 9.379413, -0.142941, 1.870422, 0.031423, 0.288098, -0.252155, -0.323222, 2.442870, 0.015684, -0.757568, -0.444824, -0.092285, 0.094013, -0.001393, 0.017559, 0.999924, -0.001616, 0.012214, 0.000078, -1.598123, -76.354601, 102.207516, , , 0.000000, , , 
24720, , 8.723263, -0.852835, 0.641255, 0.497254, 1.655615, -1.196307, -0.251984, 2.371273, 0.015102, -0.757568, -0.447021, -0.106689, 0.087301, -0.008515, 0.005388, 0.999929, -0.001260, 0.011856, 0.000076, -1.631865, -74.993873, 102.091821, , , 0.000000, , , 
24721, , 8.716419, -0.747504, 0.645439, 0.354222, 1.818598, -1.238562, 0.111759, 2.125089, 0.033401, -0.751221, -0.447021, -0.121338, 0.087227, -0.007464, 0.005524, 0.999943, 0.000559, 0.010625, 0.000167, -1.579491, -73.779789, 102.118367, , , 0.000000, , , 
24722, , 9.196792, 0.521238, 2.654778, -0.605128, 0.006647, -0.245503, 0.256083, 2.082742, 0.042899, -0.749023, -0.447021, -0.135986, 0.092237, 0.005199, 0.025595, 0.999945, 0.001280, 0.010414, 0.000214, -1.415965, -72.583862, 102.099336, , , 0.000000, , , 
24723, , 9.344453, 0.603473, 3.907876, -0.522869, -0.930681, 0.277416, -0.252258, 2.336792, 0.066870, -0.747070, -0.442627, -0.159180, 0.093891, 0.006114, 0.037976, 0.999931, -0.001261, 0.011684, 0.000334, -1.601904, -71.256095, 102.156545, , , 0.000000, , , 
24724, , 9.067229, -0.059331, 3.537785, 0.025003, -0.315886, -0.084961, -0.206303, 2.521803, 0.046710, -0.744629, -0.448975, -0.173584, 0.091109, -0.000536, 0.034231, 0.999920, -0.001031, 0.012609, 0.000234, -1.683265, -69.808716, 102.116004, , , 0.000000, , , 
24725, , 8.875949, 0.220686, 3.651021, -0.266748, -0.295254, -0.221149, 0.197149, 2.602306, 0.001288, -0.738281, -0.444824, -0.194580, 0.089225, 0.002172, 0.035353, 0.999915, 0.000986, 0.013011, 0.000006, -1.499734, -68.325366, 102.051088, , , 0.000000, , , 
24726, , 8.897674, 0.835928, 3.887604, -0.872064, -0.365736, -0.113153, 0.148650, 2.678412, -0.050159, -0.736328, -0.442627, -0.213379, 0.089489, 0.008309, 0.037686, 0.999910, 0.000743, 0.013392, -0.000251, -1.259840, -66.789601, 101.882254, , , 0.000000, , , 
24727, , 8.428887, 0.571587, 3.065469, -0.757078, 0.492566, -0.871261, -0.275330, 2.729077, -0.089827, -0.729736, -0.447021, -0.236328, 0.084699, 0.005719, 0.029493, 0.999906, -0.001377, 0.013645, -0.000449, -1.269031, -65.235062, 101.734929, , , 0.000000, , , 
24728, , 7.017416, -1.437804, -0.144472, 0.780793, 3.348574, -3.527216, -0.559579, 2.606514, -0.067491, -0.723389, -0.444824, -0.252930, 0.070143, -0.014407, -0.002319, 0.999911, -0.002798, 0.013032, -0.000337, -1.438792, -63.740721, 101.566335, , , 0.000000, , , 
24729, , 6.900112, -2.606314, 0.182907, 1.968568, 3.353725, -3.542632, 0.098249, 1.933777, -0.027840, -0.716797, -0.447021, -0.263428, 0.069011, -0.026073, 0.001149, 0.999953, 0.000491, 0.009669, -0.000139, -1.331399, -62.646545, 101.523956, , , 0.000000, , , 
24730, , 9.145293, -0.583672, 4.791482, 0.468640, 0.112586, 0.516921, 0.406861, 1.556098, 0.039926, -0.712646, -0.444824, -0.275879, 0.091823, -0.005915, 0.047189, 0.999968, 0.002034, 0.007780, 0.000200, -1.109571, -61.752490, 101.535305, , , 0.000000, , , 
24731, , 10.019260, 0.497468, 5.290240, -0.636766, 0.087164, 1.509911, -0.088964, 2.235187, 0.083887, -0.708496, -0.444824, -0.296875, 0.100773, 0.005040, 0.051776, 0.999937, -0.000445, 0.011176, 0.000419, -1.227222, -60.493368, 101.632447, , , 0.000000, , , 
24732, , 8.127638, 0.054688, 3.220508, -0.386933, 1.264942, -1.170994, 0.016306, 2.660566, 0.070184, -0.704102, -0.444824, -0.307373, 0.081695, 0.000573, 0.031120, 0.999911, 0.000082, 0.013302, 0.000351, -1.234377, -58.966368, 101.650172, , , 0.000000, , , 
24733, , 7.129429, 0.598448, 3.640225, -0.792898, 0.511505, -1.841196, 0.296243, 2.440129, 0.027835, -0.693359, -0.447021, -0.319824, 0.071731, 0.005941, 0.035538, 0.999924, 0.001481, 0.012200, 0.000139, -1.080761, -57.588825, 101.687606, , , 0.000000, , , 
24734, , 7.954675, 1.043563, 4.651443, -1.193091, 0.220831, -0.618888, 0.219273, 2.278093, -0.019109, -0.688965, -0.449219, -0.338623, 0.080071, 0.010378, 0.045616, 0.999935, 0.001096, 0.011390, -0.000096, -0.907085, -56.281953, 101.628940, , , 0.000000, , , 
24735, , 8.921728, 0.792362, 5.056578, -1.027050, 0.676265, 0.398930, 0.049407, 2.328179, -0.034540, -0.680420, -0.447021, -0.353271, 0.089799, 0.007896, 0.049525, 0.999932, 0.000247, 0.011641, -0.000173, -0.835229, -54.982323, 101.609613, , , 0.000000, , , 
24736, , 8.995188, 0.464344, 4.097713, -0.899732, 1.791382, -0.122674, 0.041635, 2.560368, -0.015124, -0.665283, -0.449219, -0.371826, 0.090467, 0.004628, 0.039822, 0.999918, 0.000208, 0.012801, -0.000076, -0.774039, -53.513753, 101.562322, , , 0.000000, , , 
24737, , 7.598592, 0.315342, 2.253010, -0.904362, 2.679204, -2.402268, -0.110495, 2.681804, 0.023785, -0.658936, -0.444824, -0.386719, 0.076279, 0.003175, 0.021507, 0.999910, -0.000552, 0.013409, 0.000119, -0.842536, -52.005682, 101.593313, , , 0.000000, , , 
24738, , 6.866133, 0.109101, 3.088077, -0.532457, 1.808632, -2.523331, -0.142885, 2.304109, 0.076270, -0.652344, -0.449219, -0.401123, 0.069011, 0.001139, 0.030086, 0.999933, -0.000714, 0.011520, 0.000381, -0.956219, -50.683260, 101.632783, , , 0.000000, , , 
24739, , 7.517415, 0.154251, 5.467676, -0.376043, 0.565923, -0.540921, -0.199432, 2.185467, 0.083604, -0.641602, -0.449219, -0.411621, 0.075765, 0.001628, 0.053849, 0.999940, -0.000997, 0.010927, 0.000418, -1.114256, -49.470891, 101.724827, , , 0.000000, , , 
24740, , 7.328007, 0.072593, 5.693789, -0.296364, 0.501117, -0.550894, -0.175540, 2.473392, 0.050940, -0.633301, -0.445068, -0.436768, 0.073977, 0.000794, 0.056025, 0.999923, -0.000878, 0.012367, 0.000255, -1.218099, -48.051853, 101.727961, , , 0.000000, , , 
24741, , 6.616499, 0.194505, 5.712157, -0.367527, 0.211543, -1.079947, -0.060544, 2.523161, 0.027777, -0.624756, -0.442871, -0.449463, 0.066878, 0.001971, 0.056280, 0.999920, -0.000303, 0.012615, 0.000139, -1.238139, -46.648559, 101.751488, , , 0.000000, , , 
24742, , 6.658953, 0.142374, 6.338918, -0.288903, 0.018300, -0.622701, -0.043424, 2.428223, 0.006133, -0.609375, -0.449463, -0.463867, 0.067353, 0.001439, 0.062574, 0.999926, -0.000217, 0.012141, 0.000031, -1.238190, -45.256115, 101.715809, , , 0.000000, , , 
24743, , 7.069272, -0.099640, 7.146642, -0.055044, -0.000051, 0.239739, -0.017200, 2.364957, 0.004050, -0.603271, -0.442871, -0.476562, 0.071531, -0.000989, 0.070624, 0.999930, -0.000086, 0.011825, 0.000020, -1.225278, -43.943995, 101.727406, , , 0.000000, , , 
24744, , 7.516126, -0.266436, 7.560389, 0.043211, 0.303602, 0.846735, -0.038849, 2.365183, 0.030303, -0.590332, -0.445068, -0.490967, 0.076049, -0.002638, 0.074709, 0.999930, -0.000194, 0.011826, 0.000152, -1.238850, -42.587526, 101.713659, , , 0.000000, , , 
24745, , 7.085135, -0.427592, 6.257328, 0.061025, 1.120833, -0.417393, -0.077401, 2.480878, 0.069621, -0.575195, -0.440918, -0.501709, 0.071622, -0.004227, 0.061690, 0.999923, -0.000387, 0.012404, 0.000348, -1.300848, -41.215829, 101.783906, , , 0.000000, , , 
24746, , 5.336474, -0.634374, 3.447399, 0.169733, 1.881006, -3.713833, -0.215444, 2.390665, 0.127674, -0.569092, -0.432373, -0.518555, 0.053776, -0.006273, 0.033840, 0.999928, -0.001077, 0.011953, 0.000638, -1.460799, -39.843646, 101.839091, , , 0.000000, , , 
24747, , 5.144218, -0.753081, 5.323077, 0.476011, 0.700198, -2.420332, -0.132168, 1.796114, 0.106775, -0.560303, -0.434570, -0.524658, 0.051921, -0.007468, 0.052771, 0.999959, -0.000661, 0.008980, 0.000534, -1.587492, -38.868095, 101.938165, , , 0.000000, , , 
24748, , 6.620534, 0.005371, 8.973573, -0.174810, -0.419332, 1.329430, -0.048439, 1.795567, 0.098930, -0.547363, -0.436768, -0.537354, 0.067007, 0.000108, 0.089137, 0.999960, -0.000242, 0.008978, 0.000495, -1.639241, -37.837253, 101.975935, , , 0.000000, , , 
24749, , 5.972476, -0.031853, 7.450202, -0.230760, 0.194306, -0.268965, -0.043800, 2.098388, 0.079943, -0.541016, -0.436768, -0.545654, 0.060502, -0.000278, 0.073870, 0.999945, -0.000219, 0.010492, 0.000400, -1.687575, -36.694172, 102.047770, , , 0.000000, , , 
24750, , 4.998974, -0.238801, 8.008558, 0.145409, -0.673938, -0.394315, -0.021907, 1.905694, 0.073527, -0.530273, -0.436768, -0.553955, 0.050751, -0.002361, 0.079605, 0.999955, -0.000110, 0.009528, 0.000368, -1.709173, -35.600873, 102.062325, , , 0.000000, , , 
24751, , 5.357195, -0.687121, 8.785143, 0.559165, -0.588024, 0.467846, -0.021907, 1.713763, 0.060907, -0.523926, -0.432373, -0.564453, 0.054324, -0.006845, 0.087389, 0.999963, -0.000110, 0.008569, 0.000305, -1.730146, -34.688156, 102.138204, , , 0.000000, , , 
24752, , 5.810944, -0.906265, 8.871691, 0.670255, -0.060469, 0.809932, 0.114015, 1.576862, 0.064514, -0.513184, -0.434570, -0.572754, 0.058809, -0.009094, 0.088250, 0.999969, 0.000570, 0.007884, 0.000323, -1.673439, -33.783596, 102.152931, , , 0.000000, , , 
24753, , 6.001110, -0.400893, 9.053500, 0.131960, 0.047671, 1.055519, 0.135747, 1.523205, 0.071304, -0.508789, -0.436768, -0.579102, 0.060700, -0.004049, 0.090072, 0.999971, 0.000679, 0.007616, 0.000357, -1.624099, -32.980484, 102.238563, , , 0.000000, , , 
24754, , 5.623990, -0.137252, 8.971197, -0.095022, -0.107002, 0.775409, 0.054357, 1.538800, 0.075745, -0.500244, -0.436768, -0.585205, 0.056928, -0.001375, 0.089275, 0.999970, 0.000272, 0.007694, 0.000379, -1.606388, -32.097822, 102.263103, , , 0.000000, , , 
24755, , 5.122206, -0.093438, 8.629395, -0.106270, -0.213725, 0.219930, 0.025381, 1.457367, 0.072591, -0.491699, -0.434814, -0.591553, 0.051849, -0.000927, 0.085918, 0.999973, 0.000127, 0.007287, 0.000363, -1.612953, -31.339259, 102.366588, , , 0.000000, , , 
24756, , 4.806210, 0.127055, 8.711502, -0.288061, -0.425634, 0.124131, 0.014548, 1.372154, 0.077938, -0.491455, -0.436768, -0.595703, 0.048658, 0.001283, 0.086783, 0.999976, 0.000073, 0.006861, 0.000390, -1.619537, -30.552286, 102.395387, , , 0.000000, , , 
24757, , 4.639430, 0.123078, 8.900435, -0.268430, -0.544295, 0.206663, -0.059517, 1.336352, 0.077439, -0.472168, -0.432617, -0.602051, 0.046987, 0.001275, 0.088691, 0.999978, -0.000298, 0.006682, 0.000387, -1.678144, -29.872228, 102.509832, , , 0.000000, , , 
24758, , 4.389299, 0.042192, 9.134304, -0.158000, -0.726513, 0.294191, -0.023776, 1.300503, 0.077059, -0.469971, -0.439209, -0.616455, 0.044486, 0.000450, 0.091055, 0.999979, -0.000119, 0.006502, 0.000385, -1.705585, -29.126588, 102.537938, , , 0.000000, , , 
24759, , 4.253557, -0.121732, 9.676596, 0.038664, -0.953842, 0.714957, -0.058562, 1.247231, 0.072045, -0.461426, -0.432617, -0.616699, 0.043138, -0.001174, 0.096499, 0.999980, -0.000293, 0.006236, 0.000360, -1.753960, -28.471811, 102.627620, , , 0.000000, , , 
24760, , 4.212278, -0.183210, 9.871935, 0.089187, -0.945605, 0.879766, -0.002265, 1.152072, 0.061085, -0.457031, -0.439209, -0.622803, 0.042691, -0.001818, 0.098475, 0.999983, -0.000011, 0.005760, 0.000305, -1.764290, -27.811639, 102.647014, , , 0.000000, , , 
24761, , 4.289339, -0.047954, 9.570234, -0.104207, -0.663954, 0.653322, -0.010860, 1.072162, 0.056983, -0.455078, -0.430664, -0.618896, 0.043406, -0.000462, 0.095471, 0.999986, -0.000054, 0.005361, 0.000285, -1.779042, -27.257819, 102.735091, , , 0.000000, , , 
24762, , 4.084370, -0.120762, 9.253514, -0.041475, -0.578846, 0.286150, -0.019467, 1.018046, 0.060080, -0.448486, -0.434814, -0.629150, 0.041314, -0.001186, 0.092326, 0.999987, -0.000097, 0.005090, 0.000300, -1.799458, -26.674620, 102.755982, , , 0.000000, , , 
24763, , 3.836402, -0.183175, 9.229169, 0.043861, -0.688773, 0.159877, -0.038315, 0.927364, 0.063079, -0.439941, -0.430664, -0.633545, 0.038792, -0.001802, 0.092113, 0.999989, -0.000192, 0.004637, 0.000315, -1.837487, -26.212591, 102.842201, , , 0.000000, , , 
24764, , 3.669011, -0.298055, 9.059954, 0.153705, -0.653020, -0.056530, -0.043827, 0.847714, 0.064962, -0.433594, -0.428467, -0.637695, 0.037075, -0.002949, 0.090444, 0.999991, -0.000219, 0.004239, 0.000325, -1.873966, -25.727063, 102.868862, , , 0.000000, , , 
24765, , 3.548363, -0.214849, 8.791311, 0.056837, -0.593306, -0.348624, -0.045744, 0.762418, 0.068630, -0.429443, -0.428467, -0.639893, 0.035819, -0.002116, 0.087777, 0.999993, -0.000229, 0.003812, 0.000343, -1.922377, -25.330558, 102.924319, , , 0.000000, , , 
24766, , 3.664197, -0.046989, 8.834628, -0.150859, -0.479262, -0.261437, -0.087479, 0.690705, 0.075991, -0.425049, -0.430664, -0.639648, 0.036947, -0.000417, 0.088219, 0.999994, -0.000437, 0.003454, 0.000380, -1.987440, -24.934816, 102.960296, , , 0.000000, , , 
24767, , 3.753672, -0.133884, 8.920871, -0.103716, -0.362524, -0.140698, -0.129631, 0.655226, 0.078009, -0.420654, -0.435059, -0.645996, 0.037829, -0.001266, 0.089086, 0.999994, -0.000648, 0.003276, 0.000390, -2.077675, -24.588622, 103.018420, , , 0.000000, , , 
24768, , 3.838538, -0.268143, 9.100316, -0.006740, -0.274764, 0.063858, -0.121365, 0.636841, 0.074084, -0.418701, -0.426514, -0.648193, 0.038676, -0.002612, 0.090882, 0.999995, -0.000607, 0.003184, 0.000370, -2.161135, -24.223764, 103.053022, , , 0.000000, , , 
24769, , 3.752964, -0.463468, 9.142437, 0.178588, -0.271095, 0.075586, -0.121315, 0.643640, 0.074813, -0.414307, -0.428711, -0.650146, 0.037825, -0.004565, 0.091306, 0.999995, -0.000607, 0.003218, 0.000374, -2.239542, -23.873962, 103.110990, , , 0.000000, , , 
24770, , 3.522260, -0.501796, 9.306876, 0.247185, -0.475385, 0.136615, -0.092123, 0.638609, 0.054816, -0.410400, -0.415771, -0.656738, 0.035521, -0.004965, 0.092958, 0.999995, -0.000461, 0.003193, 0.000274, -2.300463, -23.508504, 103.132265, , , 0.000000, , , 
24771, , 3.302648, -0.583028, 9.363406, 0.351205, -0.621235, 0.107554, -0.094093, 0.613029, 0.044742, -0.407959, -0.422119, -0.656738, 0.033315, -0.005779, 0.093535, 0.999995, -0.000470, 0.003065, 0.000224, -2.366508, -23.172381, 103.145293, , , 0.000000, , , 
24772, , 3.095689, -0.751986, 9.437943, 0.540802, -0.745177, 0.105755, -0.090629, 0.570284, 0.035799, -0.407959, -0.419922, -0.658936, 0.031227, -0.007472, 0.094294, 0.999996, -0.000453, 0.002851, 0.000179, -2.422051, -22.846493, 103.155578, , , 0.000000, , , 
24773, , 2.858521, -0.827228, 9.596727, 0.651468, -0.954727, 0.168118, -0.063984, 0.529078, 0.029909, -0.399170, -0.426514, -0.664795, 0.028840, -0.008237, 0.095894, 0.999996, -0.000320, 0.002645, 0.000150, -2.465459, -22.557670, 103.165911, , , 0.000000, , , 
24774, , 2.883081, -0.867660, 9.600185, 0.670004, -0.878626, 0.187686, -0.031182, 0.459828, 0.027917, -0.397217, -0.424316, -0.658691, 0.029053, -0.008658, 0.095937, 0.999997, -0.000156, 0.002299, 0.000140, -2.485913, -22.295233, 103.173751, , , 0.000000, , , 
24775, , 2.765111, -0.781316, 9.707146, 0.603988, -1.002238, 0.242935, -0.015175, 0.415569, 0.016899, -0.392822, -0.424316, -0.673340, 0.027853, -0.007803, 0.097014, 0.999998, -0.000076, 0.002078, 0.000084, -2.490916, -22.062913, 103.184286, , , 0.000000, , , 
24776, , 2.831463, -0.620405, 9.970801, 0.435766, -1.037960, 0.509696, 0.020651, 0.343653, 0.012863, -0.390869, -0.417969, -0.667236, 0.028486, -0.006213, 0.099659, 0.999999, 0.000103, 0.001718, 0.000064, -2.479254, -21.867360, 103.185868, , , 0.000000, , , 
24777, , 2.854484, -0.384398, 9.973586, 0.194873, -1.036036, 0.514792, 0.025263, 0.295081, 0.007531, -0.392822, -0.424316, -0.666992, 0.028692, -0.003855, 0.099693, 0.999999, 0.000126, 0.001475, 0.000038, -2.467112, -21.699987, 103.183621, , , 0.000000, , , 
24778, , 2.864948, -0.363192, 10.131635, 0.173074, -1.062397, 0.667349, -0.011046, 0.241426, 0.007734, -0.392822, -0.422119, -0.666992, 0.028772, -0.003625, 0.101282, 0.999999, -0.000055, 0.001207, 0.000039, -2.473469, -21.563080, 103.184817, , , 0.000000, , , 
24779, , 2.884512, -0.360880, 10.131196, 0.161543, -1.023843, 0.676230, 0.004677, 0.194463, 0.001683, -0.390869, -0.420166, -0.665039, 0.028944, -0.003611, 0.101284, 1.000000, 0.000023, 0.000972, 0.000008, -2.469766, -21.457578, 103.187999, , , 0.000000, , , 
24780, , 2.814406, -0.429232, 10.043647, 0.236234, -1.023695, 0.573659, 0.004559, 0.145139, -0.007291, -0.382080, -0.424561, -0.665039, 0.028217, -0.004296, 0.100416, 1.000000, 0.000023, 0.000726, -0.000036, -2.464733, -21.376173, 103.182518, , , 0.000000, , , 
24781, , 2.814780, -0.325930, 10.073463, 0.135209, -1.044840, 0.598551, 0.008849, 0.080275, -0.010883, -0.390625, -0.426514, -0.669189, 0.028188, -0.003265, 0.100723, 1.000000, 0.000044, 0.000401, -0.000054, -2.455561, -21.332285, 103.178154, , , 0.000000, , , 
24782, , 2.721726, -0.322001, 9.878101, 0.142941, -1.054127, 0.383230, 0.002605, 0.018871, -0.017258, -0.388672, -0.424316, -0.665039, 0.027226, -0.003224, 0.098778, 1.000000, 0.000013, 0.000094, -0.000086, -2.450637, -21.323406, 103.169897, , , 0.000000, , , 
24783, , 2.559447, -0.257402, 9.758527, 0.113691, -1.174537, 0.209957, 0.053429, -0.085976, -0.023156, -0.393066, -0.417969, -0.658936, 0.025552, -0.002603, 0.097596, 1.000000, 0.000267, -0.000430, -0.000116, -2.414837, -21.375527, 103.165207, , , 0.000000, , , 
24784, , 2.679106, -0.021143, 9.986345, -0.124398, -1.211334, 0.454849, 0.049585, -0.175801, -0.018530, -0.386230, -0.426514, -0.666992, 0.026703, -0.000239, 0.099887, 1.000000, 0.000248, -0.000879, -0.000093, -2.384521, -21.478118, 103.161189, , , 0.000000, , , 
24785, , 2.749735, 0.071335, 10.229704, -0.209040, -1.277732, 0.700951, 0.046437, -0.269550, -0.014991, -0.390625, -0.424316, -0.665039, 0.027359, 0.000688, 0.102334, 0.999999, 0.000232, -0.001348, -0.000075, -2.357861, -21.633718, 103.162715, , , 0.000000, , , 
24786, , 2.779257, -0.034227, 10.439061, -0.093576, -1.335473, 0.906785, 0.001412, -0.311585, -0.010754, -0.397217, -0.420166, -0.665039, 0.027630, -0.000345, 0.104434, 0.999999, 0.000007, -0.001558, -0.000054, -2.358142, -21.813860, 103.166849, , , 0.000000, , , 
24787, , 2.636169, -0.194104, 10.135833, 0.087281, -1.355953, 0.573640, -0.009626, -0.422161, -0.010963, -0.395020, -0.426514, -0.662842, 0.026148, -0.001938, 0.101414, 0.999998, -0.000048, -0.002111, -0.000055, -2.366904, -22.054486, 103.173525, , , 0.000000, , , 
24788, , 2.800756, -0.311476, 10.427069, 0.188687, -1.340614, 0.903278, -0.043376, -0.511809, -0.011771, -0.403809, -0.422119, -0.665039, 0.027740, -0.003094, 0.104343, 0.999997, -0.000217, -0.002559, -0.000059, -2.394625, -22.349269, 103.182273, , , 0.000000, , , 
24789, , 2.830712, -0.368428, 10.402062, 0.245158, -1.349345, 0.886397, -0.044852, -0.577175, -0.006466, -0.410156, -0.424316, -0.662842, 0.028007, -0.003662, 0.104103, 0.999996, -0.000224, -0.002886, -0.000032, -2.424888, -22.676548, 103.196900, , , 0.000000, , , 
24790, , 2.881504, -0.538434, 10.326949, 0.405650, -1.304951, 0.834894, -0.071185, -0.663258, -0.005660, -0.407959, -0.424316, -0.654541, 0.028472, -0.005348, 0.103366, 0.999994, -0.000356, -0.003316, -0.000028, -2.471836, -23.057861, 103.213887, , , 0.000000, , , 
24791, , 2.944495, -0.768012, 10.251998, 0.623384, -1.244062, 0.790451, -0.045906, -0.740618, -0.003045, -0.412354, -0.417725, -0.652588, 0.029065, -0.007657, 0.102630, 0.999993, -0.000230, -0.003703, -0.000015, -2.505439, -23.478632, 103.236454, , , 0.000000, , , 
24792, , 3.097154, -0.761358, 10.090460, 0.592615, -1.125996, 0.693012, -0.001594, -0.819223, -0.009708, -0.416748, -0.419922, -0.646240, 0.030558, -0.007614, 0.101030, 0.999992, -0.000008, -0.004096, -0.000049, -2.513664, -23.949300, 103.255738, , , 0.000000, , , 
24793, , 3.204439, -0.580051, 10.012451, 0.410317, -1.124157, 0.647773, 0.037504, -0.904944, -0.003851, -0.423096, -0.424316, -0.648193, 0.031591, -0.005820, 0.100267, 0.999990, 0.000188, -0.004525, -0.000019, -2.502554, -24.462439, 103.281474, , , 0.000000, , , 
24794, , 3.385328, -0.348446, 9.984020, 0.170647, -1.097413, 0.676744, 0.049803, -0.991587, -0.001918, -0.433838, -0.422119, -0.642090, 0.033358, -0.003510, 0.100006, 0.999988, 0.000249, -0.004958, -0.000010, -2.485692, -25.031573, 103.310418, , , 0.000000, , , 
24795, , 3.445533, -0.318375, 9.708488, 0.141185, -1.036441, 0.440734, 0.052740, -1.064039, 0.009215, -0.444580, -0.422119, -0.635742, 0.033938, -0.003208, 0.097266, 0.999986, 0.000264, -0.005320, 0.000046, -2.470581, -25.634513, 103.349575, , , 0.000000, , , 
24796, , 3.531485, -0.282450, 9.530636, 0.106368, -1.001287, 0.305078, 0.041145, -1.147155, 0.008679, -0.448730, -0.424072, -0.633545, 0.034768, -0.002843, 0.095506, 0.999984, 0.000206, -0.005736, 0.000043, -2.464051, -26.292439, 103.389529, , , 0.000000, , , 
24797, , 3.595850, -0.414156, 9.259696, 0.233588, -0.912234, 0.084567, 0.032330, -1.228116, 0.012368, -0.450928, -0.426270, -0.629395, 0.035389, -0.004154, 0.092815, 0.999981, 0.000162, -0.006141, 0.000062, -2.465463, -26.990649, 103.435977, , , 0.000000, , , 
24798, , 3.649704, -0.343484, 9.046639, 0.170307, -0.905708, -0.095213, 0.052922, -1.318099, 0.010261, -0.459717, -0.421875, -0.614990, 0.035900, -0.003457, 0.090703, 0.999978, 0.000265, -0.006590, 0.000051, -2.455893, -27.746389, 103.482099, , , 0.000000, , , 
24799, , 3.803775, -0.339124, 8.951715, 0.160185, -0.856586, -0.119599, 0.041023, -1.401379, 0.011025, -0.468018, -0.426270, -0.610596, 0.037409, -0.003408, 0.089780, 0.999975, 0.000205, -0.007007, 0.000055, -2.453144, -28.540192, 103.532776, , , 0.000000, , , 
24800, , 3.993637, -0.374517, 9.043045, 0.195653, -0.867348, 0.039911, 0.035481, -1.486204, 0.010255, -0.479004, -0.421875, -0.604492, 0.039263, -0.003759, 0.090723, 0.999972, 0.000177, -0.007431, 0.000051, -2.457268, -29.392150, 103.584217, , , 0.000000, , , 
24801, , 4.274874, -0.405249, 9.102037, 0.207257, -0.797358, 0.217520, 0.015878, -1.564076, 0.001682, -0.485352, -0.426270, -0.598145, 0.042035, -0.004059, 0.091351, 0.999969, 0.000079, -0.007820, 0.000008, -2.470306, -30.279832, 103.634690, , , 0.000000, , , 
24802, , 4.468830, -0.481451, 8.985768, 0.269604, -0.715878, 0.205240, 0.022731, -1.625347, -0.003296, -0.491943, -0.421875, -0.593994, 0.043956, -0.004825, 0.090216, 0.999967, 0.000114, -0.008127, -0.000016, -2.481201, -31.211744, 103.682391, , , 0.000000, , , 
24803, , 4.643539, -0.509807, 8.848582, 0.288818, -0.654471, 0.167572, 0.021002, -1.709524, -0.003210, -0.509033, -0.426025, -0.583496, 0.045677, -0.005108, 0.088878, 0.999963, 0.000105, -0.008548, -0.000016, -2.493863, -32.180003, 103.733553, , , 0.000000, , , 
24804, , 4.806698, -0.518130, 8.708545, 0.293129, -0.613528, 0.124446, 0.047872, -1.778444, -0.005371, -0.515625, -0.423828, -0.575195, 0.047290, -0.005203, 0.087507, 0.999960, 0.000239, -0.008892, -0.000027, -2.494144, -33.199567, 103.785736, , , 0.000000, , , 
24805, , 4.946374, -0.352824, 8.411397, 0.120675, -0.545591, -0.064468, 0.059623, -1.839185, -0.003691, -0.526123, -0.426025, -0.562500, 0.048687, -0.003554, 0.084563, 0.999958, 0.000298, -0.009196, -0.000018, -2.489878, -34.243558, 103.842190, , , 0.000000, , , 
24806, , 5.011036, -0.270663, 8.218312, 0.052967, -0.580393, -0.201136, 0.030284, -1.910956, 0.000025, -0.536865, -0.428223, -0.547852, 0.049322, -0.002719, 0.082656, 0.999954, 0.000151, -0.009555, 0.000000, -2.507062, -35.338821, 103.903554, , , 0.000000, , , 
24807, , 5.108657, -0.292084, 7.902503, 0.066543, -0.497047, -0.411686, 0.020985, -1.991433, 0.003020, -0.545898, -0.419434, -0.543945, 0.050296, -0.002928, 0.079528, 0.999950, 0.000105, -0.009957, 0.000015, -2.530727, -36.470164, 103.973404, , , 0.000000, , , 
24808, , 5.192520, -0.327683, 7.492319, 0.086257, -0.366065, -0.698957, 0.032553, -2.064464, 0.004349, -0.560791, -0.421631, -0.537598, 0.051148, -0.003288, 0.075453, 0.999947, 0.000163, -0.010322, 0.000022, -2.555098, -37.653129, 104.045606, , , 0.000000, , , 
24809, , 5.340890, -0.281397, 7.209351, 0.025956, -0.275073, -0.840530, 0.051751, -2.145896, 0.007098, -0.564941, -0.425781, -0.516602, 0.052631, -0.002831, 0.072660, 0.999942, 0.000259, -0.010729, 0.000035, -2.577284, -38.870710, 104.122954, , , 0.000000, , , 
24810, , 5.565787, -0.270760, 7.133304, 0.010236, -0.252023, -0.764575, 0.043852, -2.223033, 0.003990, -0.582275, -0.423584, -0.510498, 0.054861, -0.002722, 0.071945, 0.999938, 0.000219, -0.011115, 0.000020, -2.603213, -40.144377, 104.203958, , , 0.000000, , , 
24811, , 5.873479, -0.256355, 6.925900, -0.037782, -0.092039, -0.728740, 0.052399, -2.281738, -0.008660, -0.590820, -0.423584, -0.493652, 0.057939, -0.002584, 0.069922, 0.999935, 0.000262, -0.011408, -0.000043, -2.620429, -41.439652, 104.279551, , , 0.000000, , , 
24812, , 6.144008, -0.178906, 6.540477, -0.159942, 0.137103, -0.839912, 0.057637, -2.318188, -0.014879, -0.607910, -0.425781, -0.479004, 0.060676, -0.001813, 0.066111, 0.999933, 0.000288, -0.011591, -0.000074, -2.636665, -42.768213, 104.353742, , , 0.000000, , , 
24813, , 6.323986, -0.215672, 6.300597, -0.138482, 0.231039, -0.887410, 0.010875, -2.362795, -0.019426, -0.612061, -0.429932, -0.466309, 0.062489, -0.002166, 0.063747, 0.999930, 0.000054, -0.011814, -0.000097, -2.681642, -44.112151, 104.429172, , , 0.000000, , , 
24814, , 6.484571, -0.325135, 6.047371, -0.044874, 0.332580, -0.946481, 0.016065, -2.419809, -0.022464, -0.625000, -0.427734, -0.447754, 0.064107, -0.003263, 0.061252, 0.999927, 0.000080, -0.012099, -0.000112, -2.726788, -45.498987, 104.506983, , , 0.000000, , , 
24815, , 6.632256, -0.286044, 5.716677, -0.103530, 0.448624, -1.064363, 0.039503, -2.467073, -0.016187, -0.635742, -0.432129, -0.435059, 0.065610, -0.002877, 0.057978, 0.999924, 0.000198, -0.012335, -0.000081, -2.761555, -46.900868, 104.594177, , , 0.000000, , , 
24816, , 6.786311, -0.220754, 5.577325, -0.162868, 0.424574, -1.037808, 0.041715, -2.497343, -0.013699, -0.648682, -0.429932, -0.424561, 0.067160, -0.002224, 0.056614, 0.999922, 0.000209, -0.012486, -0.000068, -2.807631, -48.331729, 104.689586, , , 0.000000, , , 
24817, , 6.799597, -0.302653, 5.182521, -0.090267, 0.531915, -1.275140, 0.083031, -2.514747, -0.016993, -0.655029, -0.431885, -0.407959, 0.067337, -0.003054, 0.052673, 0.999921, 0.000415, -0.012573, -0.000085, -2.827391, -49.759606, 104.782922, , , 0.000000, , , 
24818, , 6.917540, -0.250013, 4.815807, -0.161664, 0.660667, -1.407905, 0.157307, -2.564183, -0.017821, -0.672363, -0.427734, -0.391357, 0.068550, -0.002545, 0.049038, 0.999917, 0.000787, -0.012821, -0.000089, -2.815276, -51.228764, 104.884697, , , 0.000000, , , 
24819, , 7.132450, -0.289901, 4.744002, -0.112398, 0.645675, -1.267055, 0.159696, -2.585363, -0.034043, -0.676514, -0.429688, -0.372559, 0.070703, -0.002949, 0.048354, 0.999916, 0.000798, -0.012926, -0.000170, -2.793323, -52.696498, 104.970091, , , 0.000000, , , 
24820, , 7.399679, -0.220006, 4.837081, -0.147643, 0.496015, -0.984964, 0.171561, -2.620176, -0.053537, -0.685059, -0.434082, -0.351562, 0.073354, -0.002262, 0.049333, 0.999914, 0.000858, -0.013101, -0.000268, -2.754729, -54.198711, 105.045043, , , 0.000000, , , 
24821, , 7.801012, -0.173203, 4.549113, -0.239558, 0.717554, -0.812507, 0.110594, -2.629411, -0.064316, -0.691406, -0.434082, -0.330566, 0.077403, -0.001783, 0.046510, 0.999913, 0.000553, -0.013147, -0.000322, -2.740898, -55.693123, 105.105777, , , 0.000000, , , 
24822, , 7.917303, -0.139067, 3.980337, -0.326047, 1.007715, -1.013833, 0.062013, -2.612391, -0.074386, -0.700195, -0.434082, -0.320068, 0.078644, -0.001433, 0.040832, 0.999915, 0.000310, -0.013062, -0.000372, -2.752754, -57.191442, 105.163248, , , 0.000000, , , 
24823, , 7.973514, -0.005268, 3.779367, -0.441481, 0.953387, -1.051847, 0.070470, -2.596158, -0.061663, -0.708740, -0.434082, -0.292969, 0.079236, -0.000091, 0.038824, 0.999916, 0.000352, -0.012980, -0.000308, -2.766140, -58.666023, 105.228302, , , 0.000000, , , 
24824, , 8.139409, 0.042305, 3.871350, -0.436641, 0.726219, -0.839587, 0.071153, -2.588282, -0.054141, -0.712891, -0.434082, -0.282471, 0.080884, 0.000387, 0.039763, 0.999916, 0.000356, -0.012941, -0.000271, -2.798603, -60.149925, 105.313962, , , 0.000000, , , 
24825, , 8.098611, 0.176359, 3.852355, -0.508903, 0.472188, -0.869925, 0.039054, -2.532018, -0.045828, -0.719482, -0.434082, -0.270020, 0.080490, 0.001737, 0.039545, 0.999920, 0.000195, -0.012660, -0.000229, -2.855399, -61.588685, 105.405118, , , 0.000000, , , 
24826, , 8.002785, 0.029999, 3.274939, -0.407386, 0.744109, -1.207618, 0.070055, -2.475307, -0.044466, -0.725830, -0.436279, -0.247070, 0.079614, 0.000271, 0.033737, 0.999923, 0.000350, -0.012376, -0.000222, -2.906976, -63.007550, 105.509280, , , 0.000000, , , 
24827, , 7.876436, 0.096101, 2.936249, -0.467289, 0.769409, -1.454749, 0.178628, -2.457047, -0.050974, -0.730225, -0.434082, -0.226074, 0.078396, 0.000914, 0.030328, 0.999924, 0.000893, -0.012285, -0.000255, -2.887390, -64.395936, 105.595134, , , 0.000000, , , 
24828, , 7.830739, 0.102775, 2.635975, -0.472695, 0.816115, -1.603763, 0.175752, -2.468193, -0.051929, -0.736328, -0.440430, -0.213379, 0.077974, 0.000984, 0.027324, 0.999923, 0.000879, -0.012341, -0.000260, -2.880997, -65.810881, 105.699645, , , 0.000000, , , 
24829, , 8.002941, -0.078035, 2.435878, -0.301600, 0.907470, -1.501939, 0.153380, -2.498421, -0.050950, -0.738770, -0.434082, -0.192871, 0.079717, -0.000820, 0.025355, 0.999922, 0.000767, -0.012492, -0.000255, -2.885772, -67.225281, 105.796415, , , 0.000000, , , 
24830, , 8.247545, -0.149928, 2.527624, -0.183474, 0.728751, -1.218226, 0.168377, -2.490797, -0.056460, -0.747314, -0.436279, -0.177979, 0.082152, -0.001544, 0.026299, 0.999922, 0.000842, -0.012454, -0.000282, -2.892842, -68.653233, 105.908657, , , 0.000000, , , 
24831, , 8.601587, -0.168850, 2.256939, -0.198065, 0.896811, -0.966106, 0.256251, -2.493050, -0.068341, -0.742920, -0.436279, -0.153076, 0.085725, -0.001748, 0.023637, 0.999921, 0.001281, -0.012465, -0.000342, -2.839523, -70.061920, 105.998030, , , 0.000000, , , 
24832, , 9.040487, -0.026169, 2.089672, -0.351625, 0.946777, -0.589157, 0.262292, -2.440217, -0.065038, -0.747070, -0.438477, -0.132080, 0.090141, -0.000319, 0.021997, 0.999925, 0.001311, -0.012201, -0.000325, -2.785939, -71.461155, 106.100927, , , 0.000000, , , 
24833, , 9.387152, -0.033294, 2.222477, -0.283950, 0.716521, -0.197036, 0.208207, -2.371241, -0.061401, -0.755615, -0.440430, -0.119385, 0.093599, -0.000386, 0.023335, 0.999929, 0.001041, -0.011856, -0.000307, -2.754034, -72.804172, 106.190298, , , 0.000000, , , 
24834, , 9.667170, -0.000586, 2.082799, -0.309326, 0.699482, 0.046472, 0.064234, -2.283984, -0.042945, -0.753418, -0.442627, -0.098633, 0.096425, -0.000034, 0.021930, 0.999935, 0.000321, -0.011420, -0.000215, -2.858136, -74.113330, 106.337736, , , 0.000000, , , 
24835, , 9.851190, -0.171086, 1.896543, -0.142822, 0.750653, 0.191522, 0.062532, -2.191638, -0.032474, -0.755371, -0.442627, -0.083984, 0.098296, -0.001733, 0.020043, 0.999940, 0.000313, -0.010958, -0.000162, -2.979409, -75.349336, 106.490769, , , 0.000000, , , 
24836, , 9.780083, 0.012625, 1.671393, -0.311954, 0.694489, 0.079755, 0.180579, -2.121365, -0.026946, -0.755371, -0.444824, -0.067139, 0.097616, 0.000097, 0.017750, 0.999943, 0.000903, -0.010607, -0.000135, -3.080594, -76.564725, 106.702145, , , 0.000000, , , 
24837, , 9.707354, 0.297443, 1.258982, -0.623788, 0.803760, -0.072690, 0.165219, -2.103719, -0.018668, -0.761719, -0.444824, -0.050537, 0.096934, 0.002954, 0.013612, 0.999944, 0.000826, -0.010518, -0.000093, -3.199028, -77.749352, 106.911332, , , 0.000000, , , 
24838, , 9.823410, 0.101005, 0.853695, -0.482170, 1.060385, -0.020959, 0.124289, -2.088081, -0.015830, -0.761719, -0.444824, -0.040039, 0.098138, 0.000997, 0.009563, 0.999945, 0.000621, -0.010440, -0.000079, -3.430679, -78.944997, 107.220964, , , 0.000000, , , 
24839, , 9.896695, 0.027171, 1.158563, -0.292354, 0.606607, 0.128671, 0.187469, -2.061426, -0.009387, -0.759766, -0.440674, -0.015137, 0.098841, 0.000256, 0.012605, 0.999946, 0.000937, -0.010307, -0.000047, -3.667665, -80.101473, 107.554664, , , 0.000000, , , 
24840, , 9.835265, 0.108969, 1.476253, -0.242579, 0.079475, 0.129913, 0.085286, -1.958421, -0.027980, -0.757324, -0.447021, -0.002441, 0.098202, 0.001069, 0.015725, 0.999952, 0.000426, -0.009792, -0.000140, -3.991412, -81.222769, 107.932637, , , 0.000000, , , 
24841, , 9.716370, -0.261708, 0.990411, 0.057019, 0.438390, -0.052615, 0.010576, -1.875190, -0.040378, -0.757568, -0.440674, 0.005859, 0.097065, -0.002637, 0.010814, 0.999956, 0.000053, -0.009376, -0.000202, -4.323880, -82.280453, 108.265791, , , 0.000000, , , 
24842, , 9.698011, -0.469576, 0.610920, 0.216300, 0.679430, -0.110408, 0.083817, -1.789501, -0.050006, -0.759521, -0.442871, 0.014160, 0.096919, -0.004723, 0.006975, 0.999960, 0.000419, -0.008947, -0.000250, -4.706506, -83.305389, 108.700209, , , 0.000000, , , 
24843, , 9.661011, -0.351276, 0.653071, 0.157865, 0.447021, -0.134985, 0.116564, -1.734483, -0.043659, -0.757324, -0.442871, 0.037109, 0.096548, -0.003538, 0.007366, 0.999962, 0.000583, -0.008672, -0.000218, -5.186261, -84.266514, 109.232038, , , 0.000000, , , 
24844, , 9.784581, -0.296123, 0.686674, 0.153364, 0.251155, -0.004105, 0.054195, -1.713421, -0.042308, -0.752930, -0.449463, 0.053955, 0.097782, -0.002984, 0.007704, 0.999963, 0.000271, -0.008567, -0.000212, -5.955779, -85.246364, 110.036238, , , 0.000000, , , 
24845, , 9.958564, -0.251371, 0.320399, 0.061825, 0.449596, 0.143745, 0.090337, -1.680459, -0.038128, -0.757324, -0.447266, 0.058105, 0.099554, -0.002534, 0.004039, 0.999965, 0.000452, -0.008402, -0.000191, -6.943027, -86.189725, 111.064912, , , 0.000000, , , 
24846, , 10.112623, 0.007730, 0.295291, -0.155419, 0.259790, 0.299606, 0.176965, -1.633136, -0.027589, -0.752930, -0.447266, 0.076904, 0.101098, 0.000060, 0.003779, 0.999966, 0.000885, -0.008166, -0.000138, -8.805444, -87.119164, 113.032284, , , 0.000000, , , 
24847, , 10.203490, 0.336503, 0.490085, -0.385687, -0.157521, 0.399508, 0.079402, -1.556863, -0.020048, -0.752930, -0.445068, 0.089355, 0.101993, 0.003353, 0.005696, 0.999970, 0.000397, -0.007784, -0.000100, -12.048341, -87.976185, 116.302484, , , 0.000000, , , 
24848, , 10.226485, 0.152773, 0.127584, -0.256997, 0.088630, 0.412026, -0.055030, -1.496753, -0.018728, -0.750732, -0.447266, 0.095703, 0.102252, 0.001519, 0.002041, 0.999972, -0.000275, -0.007484, -0.000094, -20.300549, -88.804776, 124.526414, , , 0.000000, , , 
24849, , 10.236246, -0.087172, -0.492123, -0.138107, 0.608281, 0.416666, 0.006392, -1.421336, -0.026041, -0.748535, -0.443115, 0.108154, 0.102394, -0.000885, -0.004194, 0.999975, 0.000032, -0.007107, -0.000130, -50.341524, -89.485314, 154.555975, , , 0.000000, , , 
24850, , 10.162262, -0.033326, -0.515481, -0.158352, 0.481557, 0.349983, 0.112420, -1.339462, -0.038809, -0.746338, -0.445312, 0.116455, 0.101654, -0.000350, -0.004474, 0.999977, 0.000562, -0.006697, -0.000194, -139.399773, -89.421931, -116.318575, , , 0.000000, , , 
24851, , 10.090930, 0.018285, -0.358608, -0.133709, 0.192528, 0.281836, 0.065500, -1.307087, -0.041225, -0.737793, -0.443115, 0.126953, 0.100930, 0.000163, -0.002926, 0.999979, 0.000327, -0.006535, -0.000206, -163.141923, -88.783829, -92.550591, , , 0.000000, , , 
24852, , 10.119564, -0.225376, -0.435431, 0.119586, 0.200425, 0.315989, 0.024140, -1.286575, -0.047594, -0.739746, -0.447510, 0.135498, 0.101220, -0.002277, -0.003703, 0.999979, 0.000121, -0.006433, -0.000238, -170.213557, -88.070665, -85.462454, , , 0.000000, , , 
24853, , 10.096295, -0.289508, -0.726189, 0.146143, 0.380058, 0.305574, 0.108499, -1.243728, -0.054980, -0.737793, -0.447510, 0.141602, 0.101005, -0.002919, -0.006635, 0.999980, 0.000542, -0.006219, -0.000275, -173.557605, -87.393029, -82.069067, , , 0.000000, , , 
24854, , 10.091656, -0.214924, -0.817356, 0.085846, 0.331378, 0.308448, 0.187575, -1.203421, -0.056303, -0.735596, -0.443115, 0.156250, 0.100963, -0.002170, -0.007568, 0.999981, 0.000938, -0.006017, -0.000282, -175.330290, -86.709387, -80.186350, , , 0.000000, , , 
24855, , 10.038345, -0.114908, -0.954198, -0.012249, 0.331225, 0.266054, 0.206313, -1.177630, -0.061184, -0.733398, -0.443115, 0.158203, 0.100437, -0.001170, -0.008952, 0.999982, 0.001032, -0.005888, -0.000306, -176.543316, -86.065405, -78.869941, , , 0.000000, , , 
24856, , 9.977292, -0.098392, -0.977957, -0.002216, 0.241293, 0.209941, 0.208911, -1.163557, -0.053005, -0.729004, -0.445312, 0.179199, 0.099827, -0.001001, -0.009200, 0.999982, 0.001045, -0.005818, -0.000265, -177.284422, -85.401102, -78.006716, , , 0.000000, , , 
24857, , 9.938978, -0.137999, -1.127588, 0.029394, 0.290087, 0.186693, 0.218708, -1.182153, -0.049799, -0.726807, -0.447510, 0.179199, 0.099454, -0.001393, -0.010690, 0.999982, 0.001094, -0.005911, -0.000249, -177.836071, -84.749407, -77.339905, , , 0.000000, , , 
24858, , 9.928158, 0.002800, -1.098834, -0.067298, 0.113609, 0.175163, 0.197359, -1.187165, -0.047254, -0.729004, -0.445312, 0.191650, 0.099344, 0.000015, -0.010399, 0.999982, 0.000987, -0.005936, -0.000236, -178.218612, -84.070451, -76.841934, , , 0.000000, , , 
24859, , 9.849378, -0.042182, -1.208848, -0.021790, 0.131492, 0.109735, 0.132101, -1.162267, -0.043651, -0.724609, -0.445557, 0.197998, 0.098562, -0.000436, -0.011516, 0.999983, 0.000661, -0.005811, -0.000218, -178.573857, -83.434105, -76.432862, , , 0.000000, , , 
24860, , 9.786788, -0.184418, -1.387864, 0.099830, 0.236290, 0.070353, 0.133128, -1.168011, -0.043573, -0.722412, -0.451904, 0.202393, 0.097946, -0.001857, -0.013308, 0.999983, 0.000666, -0.005840, -0.000218, -178.814090, -82.765661, -76.114122, , , 0.000000, , , 
24861, , 9.903380, -0.127193, -1.504779, 0.049723, 0.213812, 0.202708, 0.168196, -1.168517, -0.040257, -0.722412, -0.445557, 0.216797, 0.099119, -0.001280, -0.014470, 0.999983, 0.000841, -0.005843, -0.000201, -179.037660, -82.131672, -75.829075, , , 0.000000, , , 
24862, , 9.955699, -0.029123, -1.526888, -0.017947, 0.091505, 0.258976, 0.146215, -1.128027, -0.033559, -0.716064, -0.443359, 0.225098, 0.099641, -0.000297, -0.014707, 0.999984, 0.000731, -0.005640, -0.000168, -179.145897, -81.485920, -75.635245, , , 0.000000, , , 
24863, , 9.979617, 0.067396, -1.631747, -0.108523, 0.061400, 0.298859, 0.047281, -1.064364, -0.029166, -0.709717, -0.437012, 0.237549, 0.099881, 0.000663, -0.015786, 0.999986, 0.000236, -0.005322, -0.000146, -179.266860, -80.905562, -75.501823, , , 0.000000, , , 
24864, , 9.898587, 0.064787, -1.865864, -0.140181, 0.196162, 0.257499, -0.053425, -1.030288, -0.018304, -0.707520, -0.441406, 0.239746, 0.099080, 0.000634, -0.018149, 0.999987, -0.000267, -0.005151, -0.000092, -179.391813, -80.315698, -75.406428, , , 0.000000, , , 
24865, , 9.797349, -0.079019, -2.156718, -0.053326, 0.430814, 0.210106, -0.081118, -1.028596, -0.004164, -0.703125, -0.445557, 0.248047, 0.098083, -0.000801, -0.021063, 0.999987, -0.000406, -0.005143, -0.000021, -179.452445, -79.745712, -75.380856, , , 0.000000, , , 
24866, , 9.746060, -0.141707, -2.217963, 0.017423, 0.414406, 0.174913, -0.020874, -1.045466, -0.004774, -0.703125, -0.445557, 0.256592, 0.097575, -0.001422, -0.021670, 0.999986, -0.000104, -0.005227, -0.000024, -179.498912, -79.147111, -75.346026, , , 0.000000, , , 
24867, , 9.852356, -0.091834, -2.079483, 0.038245, 0.150988, 0.255895, 0.040552, -1.083009, -0.002669, -0.705078, -0.447754, 0.262695, 0.098634, -0.000916, -0.020261, 0.999985, 0.000203, -0.005415, -0.000013, -179.540190, -78.544151, -75.299437, , , 0.000000, , , 
24868, , 9.996939, -0.040026, -1.901705, 0.068202, -0.163161, 0.362019, 0.042296, -1.055265, 0.004556, -0.696533, -0.445801, 0.270996, 0.100068, -0.000394, -0.018489, 0.999986, 0.000211, -0.005276, 0.000023, -179.518985, -77.939950, -75.296669, , , 0.000000, , , 
24869, , 10.186193, -0.040221, -1.894077, 0.106485, -0.307046, 0.543043, 0.016789, -1.003580, 0.008244, -0.698486, -0.447754, 0.279541, 0.101955, -0.000396, -0.018429, 0.999987, 0.000084, -0.005018, 0.000041, -179.528779, -77.385835, -75.302995, , , 0.000000, , , 
24870, , 10.346414, -0.100165, -2.055041, 0.157181, -0.272534, 0.731586, 0.003212, -0.951533, 0.014268, -0.687988, -0.445801, 0.283691, 0.103560, -0.000994, -0.020058, 0.999989, 0.000016, -0.004758, 0.000071, -179.504057, -76.841092, -75.326855, , , 0.000000, , , 
24871, , 10.453677, -0.174621, -2.280415, 0.201521, -0.154452, 0.885209, -0.005382, -0.848377, 0.018042, -0.687988, -0.443604, 0.289795, 0.104632, -0.001737, -0.022360, 0.999991, -0.000027, -0.004242, 0.000090, -179.509949, -76.370890, -75.349614, , , 0.000000, , , 
24872, , 10.424763, -0.265703, -2.449679, 0.264820, -0.047956, 0.895919, 0.007221, -0.742314, 0.017319, -0.690186, -0.441406, 0.296143, 0.104338, -0.002647, -0.024110, 0.999993, 0.000036, -0.003712, 0.000087, -179.474374, -75.946053, -75.382437, , , 0.000000, , , 
24873, , 10.288851, -0.291994, -2.504473, 0.283981, -0.028372, 0.776751, 0.043243, -0.675105, 0.020167, -0.681396, -0.445801, 0.296143, 0.102973, -0.002904, -0.024698, 0.999994, 0.000216, -0.003376, 0.000101, -179.410200, -75.576496, -75.427611, , , 0.000000, , , 
24874, , 10.076532, -0.209932, -2.461550, 0.216692, -0.106465, 0.559446, 0.089889, -0.648395, 0.017589, -0.685547, -0.447998, 0.306641, 0.100845, -0.002079, -0.024290, 0.999995, 0.000449, -0.003242, 0.000088, -179.329694, -75.205508, -75.458074, , , 0.000000, , , 
24875, , 10.001615, -0.093246, -2.406317, 0.127286, -0.231079, 0.471350, 0.122015, -0.618998, 0.010494, -0.683594, -0.441406, 0.304443, 0.100090, -0.000913, -0.023754, 0.999995, 0.000610, -0.003095, 0.000052, -179.287654, -74.866474, -75.462345, , , 0.000000, , , 
24876, , 9.890496, 0.040418, -2.372164, 0.011886, -0.329525, 0.353024, 0.110652, -0.571470, 0.007152, -0.679199, -0.441650, 0.319092, 0.098972, 0.000421, -0.023439, 0.999996, 0.000553, -0.002857, 0.000036, -179.219432, -74.539673, -75.467901, , , 0.000000, , , 
24877, , 9.851009, 0.066702, -2.509053, -0.040256, -0.251237, 0.349852, 0.074619, -0.529609, 0.008758, -0.677246, -0.441650, 0.319092, 0.098576, 0.000681, -0.024829, 0.999996, 0.000373, -0.002648, 0.000044, -179.166514, -74.251971, -75.483771, , , 0.000000, , , 
24878, , 9.793604, 0.024396, -2.754163, -0.054814, -0.047698, 0.360572, 0.019950, -0.482231, 0.012941, -0.670654, -0.439453, 0.316895, 0.098002, 0.000253, -0.027305, 0.999997, 0.000100, -0.002411, 0.000065, -179.138253, -73.976295, -75.501869, , , 0.000000, , , 
24879, , 9.818307, -0.055560, -3.101084, -0.053635, 0.244174, 0.480820, -0.007270, -0.449447, 0.017054, -0.677002, -0.445801, 0.323242, 0.098252, -0.000548, -0.030790, 0.999997, -0.000036, -0.002247, 0.000085, -179.130324, -73.731102, -75.521610, , , 0.000000, , , 
24880, , 9.783353, -0.146059, -3.312858, -0.013553, 0.430161, 0.508406, 0.021434, -0.412778, 0.026324, -0.679443, -0.439453, 0.329346, 0.097902, -0.001444, -0.032927, 0.999998, 0.000107, -0.002064, 0.000132, -179.074526, -73.495131, -75.567614, , , 0.000000, , , 
24881, , 9.810977, -0.127925, -3.255065, -0.008354, 0.327141, 0.519779, 0.060510, -0.367248, 0.024045, -0.675049, -0.439453, 0.325195, 0.098169, -0.001258, -0.032371, 0.999998, 0.000303, -0.001836, 0.000120, -178.998938, -73.299932, -75.625012, , , 0.000000, , , 
24882, , 9.823702, -0.078703, -2.951181, 0.027332, -0.006145, 0.444987, 0.069187, -0.338462, 0.029603, -0.672852, -0.441650, 0.325195, 0.098287, -0.000762, -0.029346, 0.999998, 0.000346, -0.001692, 0.000148, -178.910205, -73.106515, -75.676979, , , 0.000000, , , 
24883, , 9.884268, -0.012439, -2.705624, 0.033624, -0.296487, 0.430856, 0.024464, -0.316285, 0.030260, -0.672852, -0.441650, 0.331543, 0.098885, -0.000106, -0.026900, 0.999999, 0.000122, -0.001581, 0.000151, -178.844043, -72.949933, -75.749315, , , 0.000000, , , 
24884, , 9.934793, -0.040797, -2.698391, 0.070699, -0.340087, 0.476256, 0.018402, -0.274020, 0.031666, -0.670654, -0.437256, 0.333496, 0.099385, -0.000390, -0.026848, 0.999999, 0.000092, -0.001370, 0.000158, -178.780769, -72.793447, -75.805247, , , 0.000000, , , 
24885, , 9.952568, -0.072773, -2.683306, 0.108830, -0.373209, 0.488180, 0.014913, -0.220049, 0.029463, -0.672852, -0.439453, 0.333496, 0.099555, -0.000711, -0.026724, 0.999999, 0.000075, -0.001100, 0.000147, -178.719113, -72.684031, -75.870815, , , 0.000000, , , 
24886, , 9.953004, -0.062702, -2.803316, 0.070816, -0.286746, 0.523537, 0.010463, -0.190392, 0.028348, -0.670654, -0.441650, 0.337891, 0.099557, -0.000611, -0.027938, 1.000000, 0.000052, -0.000952, 0.000142, -178.664871, -72.575509, -75.922168, , , 0.000000, , , 
24887, , 10.000113, -0.095606, -3.025253, 0.049784, -0.103495, 0.634816, 0.022625, -0.164602, 0.037511, -0.670654, -0.441650, 0.337891, 0.100026, -0.000934, -0.030170, 1.000000, 0.000113, -0.000823, 0.000188, -178.588096, -72.497564, -76.007196, , , 0.000000, , , 
24888, , 9.925888, -0.205155, -3.148072, 0.118165, 0.043621, 0.601717, 0.079354, -0.140654, 0.025025, -0.666504, -0.439453, 0.339844, 0.099281, -0.002027, -0.031412, 1.000000, 0.000397, -0.000703, 0.000125, -178.499597, -72.417591, -76.053177, , , 0.000000, , , 
24889, , 9.919520, -0.132558, -3.102024, 0.057212, -0.027854, 0.581202, 0.129864, -0.105512, 0.027341, -0.668457, -0.441650, 0.342041, 0.099212, -0.001292, -0.030969, 1.000000, 0.000649, -0.000528, 0.000137, -178.390985, -72.367323, -76.110041, , , 0.000000, , , 
24890, , 9.848507, -0.042529, -2.832723, 0.030361, -0.288418, 0.431096, 0.131312, -0.071972, 0.019865, -0.670654, -0.437256, 0.343994, 0.098495, -0.000397, -0.028292, 1.000000, 0.000657, -0.000360, 0.000099, -178.279744, -72.326754, -76.148722, , , 0.000000, , , 
24891, , 9.820182, 0.006717, -2.706903, 0.009564, -0.413844, 0.365327, 0.081245, -0.036726, 0.022079, -0.668213, -0.448242, 0.346436, 0.098207, 0.000089, -0.027051, 1.000000, 0.000406, -0.000184, 0.000110, -178.199339, -72.313716, -76.200568, , , 0.000000, , , 
24892, , 9.773899, 0.046360, -2.603983, -0.008412, -0.507722, 0.289496, 0.003563, 0.000791, 0.021803, -0.670654, -0.441650, 0.337891, 0.097739, 0.000475, -0.026040, 1.000000, 0.000018, 0.000004, 0.000109, -178.154163, -72.314772, -76.246775, , , 0.000000, , , 
24893, , 9.692627, 0.039138, -2.720442, -0.037902, -0.370875, 0.247649, -0.079103, 0.047156, 0.025194, -0.672852, -0.439453, 0.343994, 0.096920, 0.000393, -0.027227, 1.000000, -0.000396, 0.000236, 0.000126, -178.190618, -72.350596, -76.310988, , , 0.000000, , , 
24894, , 9.537746, -0.051061, -2.967151, -0.026783, -0.067655, 0.175801, -0.122191, 0.095486, 0.022104, -0.668457, -0.439453, 0.339844, 0.095363, -0.000518, -0.029717, 1.000000, -0.000611, 0.000477, 0.000111, -178.211696, -72.405910, -76.363338, , , 0.000000, , , 
24895, , 9.444580, -0.067231, -3.060683, -0.043304, 0.061882, 0.115387, -0.091944, 0.112842, 0.015263, -0.666504, -0.437256, 0.335693, 0.094429, -0.000679, -0.030660, 1.000000, -0.000460, 0.000564, 0.000076, -178.232169, -72.479922, -76.413268, , , 0.000000, , , 
