PacketCounter, SampleTimeFine, Acc_X, Acc_Y, Acc_Z, FreeAcc_X, FreeAcc_Y, FreeAcc_Z, Gyr_X, Gyr_Y, Gyr_Z, Mag_X, Mag_Y, Mag_Z, VelInc_X, VelInc_Y, VelInc_Z, OriInc_q0, OriInc_q1, OriInc_q2, OriInc_q3, Roll, Pitch, Yaw, Latitude, Longitude, Altitude, Vel_X, Vel_Y, Vel_Z
27526, , -9.533908, 1.630312, 0.851894, -0.073996, -0.018313, -0.103247, 0.040674, -0.018646, -0.012703, 0.713135, -0.474854, 0.101074, -0.095339, 0.016307, 0.008513, 1.000000, 0.000203, -0.000093, -0.000064, 60.149650, 79.237975, 123.313882, , , 0.000000, , , 
27527, , -9.419351, 1.666006, 0.872746, -0.109266, 0.033320, -0.208085, 0.046899, -0.017535, -0.019659, 0.706543, -0.474854, 0.098877, -0.094193, 0.016667, 0.008723, 1.000000, 0.000234, -0.000088, -0.000098, 60.101154, 79.242738, 123.237165, , , 0.000000, , , 
27528, , -9.409326, 1.732147, 0.928539, -0.144818, 0.113617, -0.202066, 0.044760, -0.006864, -0.020420, 0.708740, -0.477051, 0.105469, -0.094092, 0.017329, 0.009286, 1.000000, 0.000224, -0.000034, -0.000102, 60.075983, 79.250957, 123.185615, , , 0.000000, , , 
27529, , -9.457528, 1.807182, 0.972951, -0.187080, 0.179221, -0.138482, 0.036185, -0.003676, -0.017819, 0.710938, -0.474854, 0.101074, -0.094574, 0.018078, 0.009731, 1.000000, 0.000181, -0.000018, -0.000089, 60.060252, 79.258754, 123.148501, , , 0.000000, , , 
27530, , -9.547114, 1.854665, 0.886357, -0.260911, 0.110251, -0.050896, 0.019270, -0.007029, -0.022310, 0.713135, -0.481201, 0.103516, -0.095469, 0.018556, 0.008862, 1.000000, 0.000096, -0.000035, -0.000112, 60.020219, 79.267216, 123.096481, , , 0.000000, , , 
27531, , -9.601772, 1.903661, 0.834072, -0.324782, 0.077783, 0.005770, -0.007004, -0.003221, -0.026386, 0.713135, -0.470703, 0.103027, -0.096015, 0.019050, 0.008339, 1.000000, -0.000035, -0.000016, -0.000132, 59.967860, 79.279384, 123.047276, , , 0.000000, , , 
27532, , -9.683588, 1.920468, 0.847187, -0.327951, 0.084621, 0.089993, -0.034034, -0.003079, -0.030485, 0.708740, -0.477051, 0.096924, -0.096833, 0.019221, 0.008467, 1.000000, -0.000170, -0.000015, -0.000152, 59.900075, 79.291883, 122.997920, , , 0.000000, , , 
27533, , -9.690670, 1.884629, 0.857181, -0.294321, 0.077068, 0.092014, -0.049836, -0.003401, -0.026688, 0.710938, -0.479004, 0.105469, -0.096904, 0.018861, 0.008565, 1.000000, -0.000249, -0.000017, -0.000133, 59.821978, 79.304128, 122.947501, , , 0.000000, , , 
27534, , -9.635973, 1.731466, 0.881431, -0.155629, 0.039637, 0.015898, -0.054539, -0.002281, -0.018229, 0.710938, -0.474854, 0.096924, -0.096358, 0.017326, 0.008808, 1.000000, -0.000273, -0.000011, -0.000091, 59.770846, 79.309184, 122.926777, , , 0.000000, , , 
27535, , -9.596452, 1.675220, 0.845072, -0.128552, -0.011333, -0.035379, -0.052633, -0.003227, -0.007770, 0.710938, -0.477051, 0.101074, -0.095964, 0.016758, 0.008445, 1.000000, -0.000263, -0.000016, -0.000039, 59.720344, 79.312098, 122.906073, , , 0.000000, , , 
27536, , -9.594781, 1.619942, 0.847328, -0.078873, -0.033768, -0.045669, -0.034083, 0.005548, 0.000005, 0.708740, -0.474854, 0.101074, -0.095948, 0.016201, 0.008473, 1.000000, -0.000170, 0.000028, 0.000000, 59.734224, 79.309683, 122.939409, , , 0.000000, , , 
27537, , -9.579870, 1.631348, 0.831165, -0.097327, -0.040845, -0.060001, -0.026123, 0.007785, 0.015307, 0.713135, -0.477051, 0.109619, -0.095800, 0.016307, 0.008313, 1.000000, -0.000131, 0.000039, 0.000077, 59.763061, 79.304354, 122.983987, , , 0.000000, , , 
27538, , -9.636120, 1.586887, 0.821642, -0.054267, -0.077936, -0.012733, -0.007990, 0.006363, 0.015163, 0.715332, -0.477051, 0.099121, -0.096362, 0.015862, 0.008219, 1.000000, -0.000040, 0.000032, 0.000076, 59.821934, 79.294580, 123.047731, , , 0.000000, , , 
27539, , -9.595269, 1.578496, 0.814944, -0.052532, -0.081425, -0.054840, -0.000731, 0.004775, 0.015390, 0.713135, -0.474854, 0.098877, -0.095954, 0.015778, 0.008152, 1.000000, -0.000004, 0.000024, 0.000077, 59.857453, 79.288330, 123.084305, , , 0.000000, , , 
27540, , -9.578521, 1.536234, 0.800035, -0.021095, -0.110697, -0.079474, 0.006397, 0.005098, 0.012393, 0.710938, -0.477051, 0.099121, -0.095786, 0.015356, 0.008003, 1.000000, 0.000032, 0.000025, 0.000062, 59.921930, 79.280099, 123.145188, , , 0.000000, , , 
27541, , -9.558204, 1.528598, 0.849385, 0.007392, -0.067183, -0.096064, 0.010677, 0.004781, 0.010737, 0.713135, -0.470703, 0.100830, -0.095583, 0.015280, 0.008497, 1.000000, 0.000053, 0.000024, 0.000054, 59.956844, 79.276146, 123.174496, , , 0.000000, , , 
27542, , -9.531360, 1.553462, 0.889883, 0.003314, -0.015925, -0.114662, 0.013408, 0.004782, 0.006884, 0.706543, -0.472900, 0.101074, -0.095314, 0.015531, 0.008902, 1.000000, 0.000067, 0.000024, 0.000034, 60.019099, 79.271596, 123.228927, , , 0.000000, , , 
27543, , -9.540593, 1.531129, 0.864793, 0.013473, -0.048773, -0.111524, 0.016111, 0.009879, 0.001608, 0.710938, -0.474854, 0.098877, -0.095406, 0.015310, 0.008654, 1.000000, 0.000081, 0.000049, 0.000008, 60.056644, 79.273625, 123.257745, , , 0.000000, , , 
27544, , -9.554573, 1.565015, 0.911146, 0.007611, 0.006047, -0.088016, 0.019521, 0.005262, -0.002590, 0.713135, -0.474854, 0.101074, -0.095545, 0.015650, 0.009116, 1.000000, 0.000098, 0.000026, -0.000013, 60.109033, 79.274448, 123.298578, , , 0.000000, , , 
27545, , -9.587102, 1.552760, 0.909000, 0.021061, -0.005093, -0.058232, 0.017930, 0.013223, -0.006923, 0.708740, -0.481201, 0.101318, -0.095870, 0.015530, 0.009098, 1.000000, 0.000090, 0.000066, -0.000035, 60.143569, 79.281661, 123.323272, , , 0.000000, , , 
27546, , -9.601246, 1.585950, 0.955010, 0.015154, 0.049719, -0.034727, 0.020689, 0.008128, -0.009349, 0.708740, -0.474854, 0.101074, -0.096011, 0.015863, 0.009556, 1.000000, 0.000103, 0.000041, -0.000047, 60.192453, 79.286775, 123.359894, , , 0.000000, , , 
27547, , -9.594923, 1.617893, 0.944959, -0.018477, 0.057272, -0.036725, 0.030012, 0.008609, -0.011910, 0.713135, -0.477051, 0.101074, -0.095948, 0.016183, 0.009456, 1.000000, 0.000150, 0.000043, -0.000060, 60.214360, 79.295147, 123.364689, , , 0.000000, , , 
27548, , -9.596889, 1.671769, 0.941910, -0.066372, 0.079550, -0.026394, 0.039578, 0.007822, -0.008730, 0.713135, -0.481201, 0.101318, -0.095968, 0.016720, 0.009426, 1.000000, 0.000198, 0.000039, -0.000044, 60.269933, 79.299257, 123.397281, , , 0.000000, , , 
27549, , -9.597098, 1.671475, 0.940300, -0.066372, 0.079550, -0.026394, 0.047696, 0.010538, -0.005945, 0.710938, -0.474854, 0.098877, -0.095970, 0.016715, 0.009412, 1.000000, 0.000238, 0.000053, -0.000030, 60.316090, 79.305206, 123.416442, , , 0.000000, , , 
27550, , -9.636143, 1.770711, 1.007031, -0.117648, 0.177838, 0.034104, 0.053498, 0.012455, -0.006099, 0.717529, -0.474854, 0.103271, -0.096360, 0.017707, 0.010081, 1.000000, 0.000267, 0.000062, -0.000030, 60.396154, 79.307469, 123.465783, , , 0.000000, , , 
27551, , -9.624486, 1.784051, 1.062084, -0.104336, 0.235981, 0.029823, 0.047913, 0.011822, -0.000901, 0.710938, -0.479248, 0.099121, -0.096244, 0.017838, 0.010631, 1.000000, 0.000240, 0.000059, -0.000005, 60.453458, 79.311258, 123.496165, , , 0.000000, , , 
27552, , -9.603134, 1.828363, 1.035146, -0.155043, 0.235667, 0.013556, 0.048917, 0.011675, 0.005590, 0.708740, -0.477051, 0.101074, -0.096031, 0.018278, 0.010362, 1.000000, 0.000245, 0.000058, 0.000028, 60.543357, 79.303455, 123.558326, , , 0.000000, , , 
27553, , -9.624998, 1.892307, 0.981819, -0.232317, 0.214335, 0.040508, 0.026984, 0.004965, 0.002705, 0.708740, -0.468506, 0.103027, -0.096250, 0.018920, 0.009823, 1.000000, 0.000135, 0.000025, 0.000014, 60.575944, 79.303502, 123.575758, , , 0.000000, , , 
27554, , -9.619331, 1.880582, 0.940952, -0.238863, 0.172990, 0.029392, -0.004192, 0.006053, 0.002728, 0.706543, -0.477051, 0.103271, -0.096193, 0.018805, 0.009412, 1.000000, -0.000021, 0.000030, 0.000014, 60.614900, 79.291293, 123.617032, , , 0.000000, , , 
27555, , -9.652593, 1.823928, 0.908618, -0.200073, 0.114366, 0.049956, -0.036784, 0.005551, 0.003778, 0.706543, -0.472900, 0.103027, -0.096526, 0.018239, 0.009086, 1.000000, -0.000184, 0.000028, 0.000019, 60.614070, 79.290970, 123.637638, , , 0.000000, , , 
27556, , -9.685883, 1.766897, 0.876734, -0.158883, 0.053983, 0.070569, -0.066670, 0.007595, 0.000277, 0.715332, -0.474854, 0.101074, -0.096859, 0.017672, 0.008765, 1.000000, -0.000333, 0.000038, 0.000001, 60.628218, 79.276764, 123.689684, , , 0.000000, , , 
27557, , -9.758191, 1.664684, 0.852834, -0.072979, -0.023351, 0.122851, -0.084937, 0.010926, -0.002813, 0.708740, -0.479248, 0.101318, -0.097581, 0.016652, 0.008527, 1.000000, -0.000425, 0.000055, -0.000014, 60.604205, 79.281239, 123.714774, , , 0.000000, , , 
27558, , -9.710284, 1.587174, 0.808577, -0.027967, -0.090794, 0.059167, -0.090133, 0.012041, -0.005101, 0.710938, -0.472656, 0.103027, -0.097102, 0.015878, 0.008084, 1.000000, -0.000451, 0.000060, -0.000026, 60.618175, 79.268984, 123.780152, , , 0.000000, , , 
27559, , -9.679914, 1.508434, 0.746846, 0.009188, -0.174586, 0.010923, -0.088771, 0.018737, -0.007516, 0.706543, -0.477051, 0.103271, -0.096798, 0.015091, 0.007471, 1.000000, -0.000444, 0.000094, -0.000038, 60.605540, 79.278000, 123.819060, , , 0.000000, , , 
27560, , -9.621130, 1.399417, 0.727191, 0.092378, -0.230506, -0.066321, -0.076157, 0.022413, -0.001334, 0.706543, -0.474854, 0.103271, -0.096210, 0.013998, 0.007277, 1.000000, -0.000381, 0.000112, -0.000007, 60.664318, 79.272034, 123.921839, , , 0.000000, , , 
27561, , -9.540875, 1.334432, 0.681988, 0.121021, -0.284902, -0.159797, -0.054448, 0.027845, -0.003458, 0.710938, -0.472656, 0.105225, -0.095408, 0.013348, 0.006830, 1.000000, -0.000272, 0.000139, -0.000017, 60.701511, 79.281575, 123.991439, , , 0.000000, , , 
27562, , -9.516189, 1.268559, 0.657946, 0.168279, -0.328763, -0.196889, -0.020191, 0.033756, -0.001245, 0.704346, -0.472900, 0.094482, -0.095161, 0.012687, 0.006594, 1.000000, -0.000101, 0.000169, -0.000006, 60.825145, 79.285691, 124.127759, , , 0.000000, , , 
27563, , -9.552818, 1.213723, 0.695182, 0.238881, -0.322177, -0.166348, 0.008128, 0.039666, -0.002089, 0.715332, -0.474854, 0.103271, -0.095527, 0.012138, 0.006971, 1.000000, 0.000041, 0.000198, -0.000010, 60.931847, 79.297811, 124.231594, , , 0.000000, , , 
27564, , -9.568054, 1.202477, 0.707007, 0.258328, -0.314370, -0.152051, 0.037667, 0.040802, -0.007558, 0.710938, -0.474854, 0.096924, -0.095679, 0.012027, 0.007092, 1.000000, 0.000188, 0.000204, -0.000038, 61.089404, 79.313329, 124.367860, , , 0.000000, , , 
27565, , -9.552801, 1.257194, 0.717676, 0.214529, -0.273962, -0.157092, 0.059025, 0.046877, -0.017914, 0.706543, -0.477051, 0.105469, -0.095525, 0.012578, 0.007203, 1.000000, 0.000295, 0.000234, -0.000090, 61.221787, 79.335293, 124.468150, , , 0.000000, , , 
27566, , -9.558498, 1.311778, 0.783611, 0.197827, -0.184916, -0.136616, 0.082234, 0.051205, -0.035354, 0.717529, -0.477051, 0.103271, -0.095581, 0.013131, 0.007866, 1.000000, 0.000411, 0.000256, -0.000177, 61.391798, 79.374223, 124.591613, , , 0.000000, , , 
27567, , -9.532080, 1.377595, 0.850424, 0.167335, -0.086365, -0.145936, 0.092889, 0.045011, -0.039265, 0.706543, -0.481201, 0.105469, -0.095316, 0.013791, 0.008532, 1.000000, 0.000464, 0.000225, -0.000196, 61.508583, 79.406315, 124.656278, , , 0.000000, , , 
27568, , -9.493490, 1.463659, 0.867957, 0.095036, -0.018266, -0.168382, 0.104750, 0.052518, -0.050229, 0.713135, -0.472656, 0.101074, -0.094929, 0.014656, 0.008712, 1.000000, 0.000524, 0.000263, -0.000251, 61.676395, 79.454782, 124.764657, , , 0.000000, , , 
27569, , -9.519772, 1.525352, 0.882685, 0.049593, 0.025619, -0.131326, 0.106247, 0.052217, -0.047964, 0.708740, -0.468506, 0.109375, -0.095192, 0.015272, 0.008860, 1.000000, 0.000531, 0.000261, -0.000240, 61.809172, 79.493141, 124.837786, , , 0.000000, , , 
27570, , -9.528710, 1.588275, 0.914414, 0.008350, 0.089652, -0.109751, 0.103247, 0.050947, -0.049084, 0.708740, -0.470703, 0.111572, -0.095281, 0.015901, 0.009177, 1.000000, 0.000516, 0.000255, -0.000245, 61.950777, 79.543701, 124.921396, , , 0.000000, , , 
27571, , -9.573845, 1.747918, 0.941361, -0.116184, 0.184991, -0.037608, 0.085656, 0.049638, -0.052538, 0.717529, -0.470703, 0.105225, -0.095732, 0.017500, 0.009445, 1.000000, 0.000428, 0.000248, -0.000263, 62.059500, 79.583644, 124.982038, , , 0.000000, , , 
27572, , -9.519574, 1.744745, 0.913433, -0.133391, 0.175873, -0.094043, 0.055222, 0.051801, -0.051836, 0.706543, -0.472900, 0.103027, -0.095189, 0.017470, 0.009164, 1.000000, 0.000276, 0.000259, -0.000259, 62.175591, 79.632068, 125.067456, , , 0.000000, , , 
27573, , -9.634761, 1.747479, 0.918109, -0.123205, 0.171734, 0.019940, 0.038501, 0.054784, -0.052787, 0.713135, -0.474854, 0.109619, -0.096340, 0.017498, 0.009211, 1.000000, 0.000193, 0.000274, -0.000264, 62.272556, 79.673499, 125.143584, , , 0.000000, , , 
27574, , -9.691868, 1.741269, 0.934410, -0.106202, 0.182669, 0.076337, 0.023075, 0.047877, -0.056940, 0.708740, -0.470703, 0.111572, -0.096911, 0.017439, 0.009369, 1.000000, 0.000115, 0.000239, -0.000285, 62.347282, 79.716230, 125.205817, , , 0.000000, , , 
27575, , -9.720010, 1.666692, 0.857190, -0.075712, 0.084125, 0.085717, 0.023735, 0.045810, -0.057967, 0.710938, -0.468506, 0.109375, -0.097193, 0.016694, 0.008596, 1.000000, 0.000119, 0.000229, -0.000290, 62.404233, 79.757842, 125.249871, , , 0.000000, , , 
27576, , -9.753555, 1.649601, 0.851305, -0.061873, 0.073202, 0.115482, 0.033534, 0.041258, -0.048281, 0.706543, -0.468506, 0.103027, -0.097530, 0.016518, 0.008536, 1.000000, 0.000168, 0.000206, -0.000241, 62.481820, 79.793176, 125.308911, , , 0.000000, , , 
27577, , -9.690485, 1.624905, 0.817786, -0.063558, 0.047995, 0.046736, 0.048181, 0.044522, -0.044104, 0.706543, -0.470703, 0.109375, -0.096899, 0.016268, 0.008203, 1.000000, 0.000241, 0.000223, -0.000221, 62.570522, 79.827388, 125.370974, , , 0.000000, , , 
27578, , -9.637419, 1.570778, 0.866258, 0.000527, 0.079938, -0.010076, 0.059280, 0.040930, -0.037930, 0.710938, -0.466309, 0.109131, -0.096369, 0.015723, 0.008687, 1.000000, 0.000296, 0.000205, -0.000190, 62.664196, 79.853804, 125.432757, , , 0.000000, , , 
27579, , -9.579981, 1.604402, 0.903235, -0.018153, 0.142136, -0.058435, 0.070884, 0.050554, -0.037057, 0.717529, -0.468506, 0.109375, -0.095795, 0.016059, 0.009062, 1.000000, 0.000354, 0.000253, -0.000185, 62.794390, 79.885932, 125.523768, , , 0.000000, , , 
27580, , -9.571985, 1.669606, 0.951993, -0.053436, 0.222130, -0.052330, 0.076615, 0.055048, -0.037849, 0.710938, -0.468506, 0.109375, -0.095714, 0.016711, 0.009553, 1.000000, 0.000383, 0.000275, -0.000189, 62.939023, 79.917372, 125.626416, , , 0.000000, , , 
27581, , -9.529973, 1.647694, 0.972845, -0.028326, 0.243928, -0.095620, 0.069440, 0.057261, -0.035599, 0.710938, -0.468506, 0.109375, -0.095294, 0.016491, 0.009761, 1.000000, 0.000347, 0.000286, -0.000178, 63.091073, 79.950444, 125.740457, , , 0.000000, , , 
27582, , -9.520465, 1.764780, 0.945677, -0.143963, 0.279971, -0.089062, 0.060700, 0.062320, -0.036275, 0.710938, -0.464355, 0.113281, -0.095198, 0.017662, 0.009492, 1.000000, 0.000304, 0.000312, -0.000181, 63.239626, 79.977702, 125.857154, , , 0.000000, , , 
27583, , -9.508405, 1.721461, 0.998233, -0.081886, 0.315925, -0.103767, 0.047985, 0.061339, -0.028211, 0.713135, -0.470703, 0.115723, -0.095079, 0.017226, 0.010016, 1.000000, 0.000240, 0.000307, -0.000141, 63.403493, 80.007911, 125.995680, , , 0.000000, , , 
27584, , -9.498613, 1.688005, 1.017925, -0.042446, 0.325037, -0.117239, 0.041503, 0.061473, -0.027032, 0.708740, -0.470703, 0.113525, -0.094981, 0.016891, 0.010212, 1.000000, 0.000208, 0.000307, -0.000135, 63.558509, 80.027218, 126.129055, , , 0.000000, , , 
27585, , -9.467530, 1.653168, 0.981966, -0.030646, 0.288698, -0.156236, 0.048765, 0.057381, -0.025987, 0.710938, -0.464355, 0.115479, -0.094670, 0.016542, 0.009851, 1.000000, 0.000244, 0.000287, -0.000130, 63.716137, 80.055154, 126.260766, , , 0.000000, , , 
27586, , -9.457618, 1.620205, 1.002014, 0.008848, 0.297016, -0.169693, 0.052569, 0.057916, -0.020797, 0.715088, -0.464355, 0.115479, -0.094572, 0.016209, 0.010052, 1.000000, 0.000263, 0.000290, -0.000104, 63.862562, 80.066140, 126.379775, , , 0.000000, , , 
27587, , -9.434903, 1.652908, 1.003617, -0.019814, 0.322784, -0.187088, 0.058326, 0.059870, -0.020868, 0.712891, -0.459961, 0.119629, -0.094344, 0.016536, 0.010069, 1.000000, 0.000292, 0.000299, -0.000104, 64.041771, 80.091921, 126.527822, , , 0.000000, , , 
27588, , -9.468063, 1.684432, 1.026186, -0.031377, 0.356704, -0.147990, 0.065578, 0.064076, -0.019434, 0.719482, -0.462158, 0.117432, -0.094676, 0.016850, 0.010298, 1.000000, 0.000328, 0.000320, -0.000097, 64.197776, 80.105774, 126.648070, , , 0.000000, , , 
27589, , -9.540178, 1.777021, 0.978169, -0.125411, 0.353435, -0.066459, 0.058373, 0.068830, -0.017933, 0.708740, -0.466309, 0.117676, -0.095397, 0.017776, 0.009820, 1.000000, 0.000292, 0.000344, -0.000090, 64.409152, 80.132183, 126.828702, , , 0.000000, , , 
27590, , -9.590727, 1.852096, 1.013324, -0.166956, 0.415638, -0.002565, 0.046606, 0.071919, -0.022360, 0.706543, -0.459961, 0.115234, -0.095902, 0.018529, 0.010172, 1.000000, 0.000233, 0.000360, -0.000112, 64.564147, 80.143935, 126.959924, , , 0.000000, , , 
27591, , -9.628433, 1.841002, 1.077170, -0.121678, 0.469679, 0.037231, 0.020451, 0.078748, -0.024958, 0.710938, -0.466309, 0.119873, -0.096278, 0.018421, 0.010811, 1.000000, 0.000102, 0.000394, -0.000125, 64.775058, 80.176249, 127.162112, , , 0.000000, , , 
27592, , -9.661843, 1.826844, 1.068236, -0.107292, 0.454377, 0.067178, 0.004190, 0.073443, -0.015712, 0.710693, -0.459961, 0.121582, -0.096613, 0.018276, 0.010718, 1.000000, 0.000021, 0.000367, -0.000079, 64.913735, 80.180151, 127.301104, , , 0.000000, , , 
27593, , -9.632750, 1.741179, 1.107028, -0.014945, 0.461129, 0.027751, 0.001225, 0.080440, -0.016525, 0.717285, -0.468506, 0.126221, -0.096322, 0.017420, 0.011109, 1.000000, 0.000006, 0.000402, -0.000083, 65.132268, 80.208277, 127.522196, , , 0.000000, , , 
27594, , -9.655202, 1.696757, 1.124838, 0.038340, 0.456317, 0.044162, 0.003200, 0.069385, -0.003234, 0.715088, -0.462158, 0.121826, -0.096548, 0.016969, 0.011282, 1.000000, 0.000016, 0.000347, -0.000016, 65.280117, 80.202738, 127.670955, , , 0.000000, , , 
27595, , -9.668749, 1.631559, 1.136661, 0.105583, 0.441209, 0.047986, 0.014309, 0.063294, 0.003723, 0.715088, -0.462158, 0.121826, -0.096684, 0.016313, 0.011398, 1.000000, 0.000072, 0.000316, 0.000019, 65.483955, 80.216036, 127.869481, , , 0.000000, , , 
27596, , -9.716634, 1.609063, 1.145005, 0.137925, 0.431856, 0.092239, 0.026677, 0.054941, 0.005383, 0.710693, -0.468506, 0.128418, -0.097164, 0.016086, 0.011479, 1.000000, 0.000133, 0.000275, 0.000027, 65.572389, 80.201449, 127.944813, , , 0.000000, , , 
27597, , -9.815815, 1.582214, 1.101925, 0.154961, 0.372933, 0.182550, 0.037517, 0.046881, 0.004831, 0.710938, -0.470703, 0.120117, -0.098156, 0.015818, 0.011045, 1.000000, 0.000188, 0.000234, 0.000024, 65.741509, 80.210195, 128.094607, , , 0.000000, , , 
27598, , -9.872217, 1.581602, 1.118089, 0.173204, 0.377546, 0.239164, 0.050362, 0.037684, -0.000261, 0.712891, -0.462158, 0.125977, -0.098720, 0.015813, 0.011203, 1.000000, 0.000252, 0.000188, -0.000001, 65.800699, 80.188082, 128.130763, , , 0.000000, , , 
27599, , -9.904890, 1.569483, 1.112201, 0.186701, 0.366327, 0.268883, 0.057328, 0.034173, -0.007403, 0.715088, -0.466309, 0.126221, -0.099046, 0.015695, 0.011143, 1.000000, 0.000287, 0.000171, -0.000037, 65.926484, 80.200090, 128.225060, , , 0.000000, , , 
27600, , -9.896936, 1.592778, 1.132028, 0.176504, 0.393476, 0.266092, 0.066687, 0.029610, -0.008356, 0.708740, -0.468506, 0.126221, -0.098967, 0.015928, 0.011340, 1.000000, 0.000333, 0.000148, -0.000042, 65.924392, 80.186059, 128.186940, , , 0.000000, , , 
27601, , -9.863218, 1.595635, 1.162823, 0.186429, 0.430040, 0.235277, 0.073736, 0.026756, -0.012982, 0.708496, -0.464355, 0.128174, -0.098630, 0.015958, 0.011647, 1.000000, 0.000369, 0.000134, -0.000065, 66.029824, 80.199269, 128.251015, , , 0.000000, , , 
27602, , -9.760109, 1.574433, 1.093435, 0.163226, 0.370796, 0.125624, 0.085306, 0.019829, -0.012739, 0.715088, -0.466309, 0.124023, -0.097599, 0.015746, 0.010951, 1.000000, 0.000427, 0.000099, -0.000064, 66.013756, 80.183567, 128.188483, , , 0.000000, , , 
27603, , -9.700786, 1.602686, 1.166060, 0.167973, 0.458522, 0.076453, 0.094872, 0.019801, -0.006863, 0.715088, -0.464111, 0.128174, -0.097006, 0.016025, 0.011678, 1.000000, 0.000474, 0.000099, -0.000034, 66.118958, 80.191898, 128.240014, , , 0.000000, , , 
27604, , -9.610874, 1.608026, 1.176326, 0.160359, 0.478073, -0.010436, 0.102336, 0.020260, 0.001056, 0.710693, -0.462158, 0.130371, -0.096108, 0.016074, 0.011781, 1.000000, 0.000512, 0.000101, 0.000005, 66.080477, 80.167799, 128.147929, , , 0.000000, , , 
27605, , -9.548793, 1.538360, 1.221154, 0.239188, 0.496264, -0.079562, 0.118460, 0.018241, 0.009082, 0.708496, -0.459961, 0.128174, -0.095488, 0.015372, 0.012229, 1.000000, 0.000592, 0.000091, 0.000045, 66.215645, 80.167416, 128.216162, , , 0.000000, , , 
27606, , -9.523041, 1.520923, 1.228335, 0.258278, 0.494371, -0.107060, 0.138142, 0.018008, 0.016610, 0.708496, -0.464355, 0.134521, -0.095231, 0.015193, 0.012302, 1.000000, 0.000691, 0.000090, 0.000083, 66.222867, 80.140951, 128.140894, , , 0.000000, , , 
27607, , -9.538125, 1.513585, 1.240403, 0.276756, 0.501397, -0.092741, 0.163248, 0.014533, 0.014831, 0.706299, -0.466309, 0.132568, -0.095381, 0.015119, 0.012423, 1.000000, 0.000816, 0.000073, 0.000074, 66.380089, 80.136706, 128.205440, , , 0.000000, , , 
27608, , -9.542845, 1.521299, 1.309274, 0.308274, 0.560901, -0.082076, 0.187017, 0.015897, 0.017668, 0.712891, -0.466309, 0.134766, -0.095429, 0.015192, 0.013115, 1.000000, 0.000935, 0.000079, 0.000088, 66.431253, 80.105924, 128.151644, , , 0.000000, , , 
27609, , -9.469700, 1.528179, 1.301274, 0.296394, 0.569016, -0.153897, 0.215536, 0.013542, 0.012979, 0.704102, -0.462158, 0.134521, -0.094697, 0.015262, 0.013036, 0.999999, 0.001078, 0.000068, 0.000065, 66.613402, 80.102351, 128.211039, , , 0.000000, , , 
27610, , -9.357949, 1.579906, 1.284498, 0.236392, 0.589866, -0.256882, 0.238320, 0.018212, 0.011235, 0.708496, -0.462158, 0.134521, -0.093579, 0.015778, 0.012872, 0.999999, 0.001192, 0.000091, 0.000056, 66.661312, 80.075423, 128.124155, , , 0.000000, , , 
27611, , -9.252745, 1.598837, 1.276792, 0.211024, 0.609372, -0.358382, 0.253680, 0.017306, 0.003075, 0.708496, -0.466309, 0.141113, -0.092527, 0.015971, 0.012796, 0.999999, 0.001268, 0.000087, 0.000015, 66.864094, 80.077859, 128.182275, , , 0.000000, , , 
27612, , -9.160796, 1.747943, 1.267736, 0.071913, 0.681357, -0.425823, 0.251090, 0.020897, -0.003619, 0.699707, -0.462158, 0.138672, -0.091606, 0.017465, 0.012709, 0.999999, 0.001255, 0.000104, -0.000018, 66.900765, 80.058241, 128.077713, , , 0.000000, , , 
27613, , -9.092951, 1.907394, 1.279874, -0.062780, 0.781228, -0.466901, 0.225975, 0.029089, -0.018129, 0.712891, -0.459961, 0.138672, -0.090926, 0.019068, 0.012834, 0.999999, 0.001130, 0.000145, -0.000091, 67.096627, 80.074442, 128.144878, , , 0.000000, , , 
27614, , -9.018457, 2.005776, 1.222141, -0.181574, 0.787422, -0.528490, 0.172253, 0.041486, -0.031275, 0.708496, -0.466309, 0.138916, -0.090179, 0.020061, 0.012257, 1.000000, 0.000861, 0.000207, -0.000156, 67.107287, 80.073519, 128.052645, , , 0.000000, , , 
27615, , -9.015604, 2.090996, 1.200884, -0.263939, 0.817173, -0.519783, 0.108630, 0.057950, -0.041970, 0.712891, -0.459961, 0.145020, -0.090148, 0.020922, 0.012046, 1.000000, 0.000543, 0.000290, -0.000210, 67.293760, 80.108671, 128.178492, , , 0.000000, , , 
27616, , -8.886354, 2.082715, 1.202605, -0.269787, 0.833012, -0.648379, 0.041375, 0.074450, -0.055482, 0.708496, -0.459961, 0.142822, -0.088853, 0.020849, 0.012063, 1.000000, 0.000207, 0.000372, -0.000277, 67.286408, 80.119578, 128.154749, , , 0.000000, , , 
27617, , -8.640653, 1.966170, 1.170873, -0.211092, 0.792234, -0.911820, -0.018930, 0.092411, -0.054344, 0.708496, -0.464355, 0.145264, -0.086396, 0.019686, 0.011747, 1.000000, -0.000095, 0.000462, -0.000272, 67.490781, 80.168785, 128.372890, , , 0.000000, , , 
27618, , -8.338844, 1.850272, 1.118458, -0.169119, 0.734319, -1.231141, -0.062052, 0.107973, -0.053537, 0.717285, -0.462158, 0.145264, -0.083377, 0.018529, 0.011224, 1.000000, -0.000310, 0.000540, -0.000268, 67.553030, 80.183385, 128.476763, , , 0.000000, , , 
27619, , -7.994212, 1.716625, 1.094619, -0.102145, 0.705943, -1.594195, -0.090753, 0.126964, -0.048251, 0.708496, -0.458008, 0.146973, -0.079931, 0.017191, 0.010989, 1.000000, -0.000454, 0.000635, -0.000241, 67.833656, 80.236646, 128.813958, , , 0.000000, , , 
27620, , -7.702175, 1.585861, 0.984557, -0.074000, 0.590253, -1.909908, -0.097443, 0.143032, -0.049006, 0.708496, -0.466309, 0.147461, -0.077011, 0.015882, 0.009893, 1.000000, -0.000487, 0.000715, -0.000245, 67.963436, 80.256295, 129.008148, , , 0.000000, , , 
27621, , -7.549752, 1.481785, 0.869781, -0.055381, 0.472545, -2.084519, -0.090703, 0.161877, -0.054234, 0.708496, -0.459961, 0.149414, -0.075486, 0.014842, 0.008752, 1.000000, -0.000454, 0.000809, -0.000271, 68.350803, 80.319764, 129.453470, , , 0.000000, , , 
27622, , -7.488780, 1.463920, 0.798185, -0.079653, 0.416520, -2.152261, -0.077290, 0.183419, -0.073609, 0.704102, -0.459961, 0.147217, -0.074875, 0.014670, 0.008045, 0.999999, -0.000386, 0.000917, -0.000368, 68.646280, 80.357017, 129.808134, , , 0.000000, , , 
27623, , -7.562393, 1.549030, 0.740439, -0.173592, 0.412490, -2.070774, -0.072830, 0.204704, -0.103105, 0.710693, -0.462158, 0.149414, -0.075608, 0.015532, 0.007476, 0.999999, -0.000364, 0.001024, -0.000516, 69.130808, 80.454424, 130.341393, , , 0.000000, , , 
27624, , -7.913256, 1.732564, 0.594837, -0.367021, 0.340230, -1.705608, -0.082888, 0.228427, -0.159086, 0.706299, -0.455811, 0.153320, -0.079112, 0.017391, 0.006032, 0.999999, -0.000414, 0.001142, -0.000795, 69.475282, 80.546701, 130.743078, , , 0.000000, , , 
27625, , -8.633619, 1.947625, 0.454000, -0.550680, 0.253719, -0.971249, -0.118767, 0.264920, -0.229376, 0.706299, -0.455811, 0.153320, -0.086308, 0.019578, 0.004643, 0.999998, -0.000594, 0.001325, -0.001147, 70.000275, 80.722538, 131.343633, , , 0.000000, , , 
27626, , -9.509859, 2.121944, 0.288080, -0.698933, 0.111376, -0.090445, -0.170983, 0.302712, -0.310011, 0.712891, -0.457764, 0.155518, -0.095061, 0.021369, 0.003006, 0.999997, -0.000855, 0.001514, -0.001550, 70.437693, 80.915831, 131.875734, , , 0.000000, , , 
27627, , -10.378249, 2.326912, 0.268761, -0.813521, 0.130644, 0.794654, -0.208396, 0.338104, -0.390962, 0.712646, -0.453613, 0.157471, -0.103732, 0.023475, 0.002839, 0.999996, -0.001042, 0.001691, -0.001955, 71.017083, 81.191185, 132.582551, , , 0.000000, , , 
27628, , -11.118856, 2.373989, 0.270995, -0.799389, 0.113917, 1.531294, -0.235841, 0.359249, -0.448112, 0.719238, -0.447266, 0.159424, -0.111130, 0.023992, 0.002881, 0.999995, -0.001179, 0.001796, -0.002241, 71.509493, 81.460379, 133.226716, , , 0.000000, , , 
27629, , -11.387753, 2.262712, 0.247091, -0.716329, 0.069118, 1.777980, -0.235130, 0.368872, -0.476870, 0.714844, -0.445068, 0.159424, -0.113818, 0.022902, 0.002654, 0.999995, -0.001176, 0.001844, -0.002384, 72.168472, 81.785788, 134.028324, , , 0.000000, , , 
27630, , -11.394126, 2.117045, 0.148971, -0.663137, -0.032728, 1.758353, -0.211496, 0.382712, -0.475900, 0.710449, -0.438721, 0.156982, -0.113887, 0.021443, 0.001685, 0.999995, -0.001057, 0.001914, -0.002379, 72.833556, 82.077419, 134.820241, , , 0.000000, , , 
27631, , -11.387900, 1.942764, 0.074372, -0.573765, -0.116419, 1.725119, -0.158821, 0.410949, -0.448995, 0.719238, -0.438721, 0.165527, -0.113833, 0.019684, 0.000962, 0.999995, -0.000794, 0.002055, -0.002245, 73.865854, 82.391312, 135.953205, , , 0.000000, , , 
27632, , -11.321927, 1.900629, 0.224491, -0.489933, 0.060800, 1.659223, -0.099730, 0.444810, -0.388409, 0.712646, -0.436768, 0.167480, -0.113177, 0.019227, 0.002487, 0.999996, -0.000499, 0.002224, -0.001942, 75.170226, 82.641972, 137.307946, , , 0.000000, , , 
27633, , -11.401605, 1.844872, 0.403619, -0.362127, 0.251423, 1.735834, -0.040211, 0.481105, -0.332670, 0.721191, -0.436523, 0.171631, -0.113975, 0.018639, 0.004307, 0.999996, -0.000201, 0.002406, -0.001663, 76.903791, 82.893392, 139.077849, , , 0.000000, , , 
27634, , -11.274302, 1.843868, 0.747565, -0.211647, 0.625942, 1.616732, 0.016054, 0.509263, -0.269522, 0.717041, -0.436523, 0.169678, -0.112699, 0.018590, 0.007764, 0.999996, 0.000080, 0.002546, -0.001348, 78.945944, 83.069854, 141.120058, , , 0.000000, , , 
27635, , -10.922344, 1.769862, 1.063928, -0.028016, 0.962418, 1.261363, 0.083370, 0.525765, -0.210937, 0.718994, -0.432373, 0.182129, -0.109176, 0.017809, 0.010934, 0.999996, 0.000417, 0.002629, -0.001055, 81.306423, 83.240379, 143.448502, , , 0.000000, , , 
27636, , -10.548155, 1.721621, 1.261163, 0.086423, 1.195619, 0.882209, 0.137355, 0.528273, -0.158536, 0.721191, -0.432373, 0.182129, -0.105434, 0.017291, 0.012902, 0.999996, 0.000687, 0.002641, -0.000793, 83.745583, 83.330041, 145.826430, , , 0.000000, , , 
27637, , -10.155141, 1.646884, 1.417671, 0.202742, 1.380914, 0.478115, 0.176344, 0.507501, -0.115994, 0.718994, -0.430176, 0.188477, -0.101505, 0.016515, 0.014449, 0.999996, 0.000882, 0.002538, -0.000580, 86.305578, 83.421039, 148.300991, , , 0.000000, , , 
27638, , -9.751955, 1.678692, 1.429036, 0.161182, 1.473537, 0.074844, 0.185416, 0.475025, -0.092203, 0.721191, -0.427979, 0.194824, -0.097477, 0.016818, 0.014537, 0.999997, 0.000927, 0.002375, -0.000461, 88.565475, 83.448128, 150.475878, , , 0.000000, , , 
27639, , -9.441118, 1.836225, 1.444404, 0.015576, 1.622893, -0.223185, 0.154519, 0.434615, -0.085058, 0.721191, -0.432373, 0.199219, -0.094372, 0.018391, 0.014663, 0.999997, 0.000773, 0.002173, -0.000425, 90.843226, 83.497533, 152.678399, , , 0.000000, , , 
27640, , -9.188193, 1.911321, 1.462432, -0.051395, 1.719881, -0.471704, 0.080388, 0.396374, -0.093772, 0.712402, -0.428223, 0.198975, -0.091844, 0.019150, 0.014814, 0.999998, 0.000402, 0.001982, -0.000469, 92.650216, 83.506390, 154.469918, , , 0.000000, , , 
27641, , -8.957277, 1.930917, 1.544767, -0.045587, 1.848629, -0.706209, -0.005798, 0.354962, -0.125843, 0.718994, -0.430176, 0.198975, -0.089533, 0.019366, 0.015606, 0.999998, -0.000029, 0.001775, -0.000629, 94.494212, 83.564903, 156.327979, , , 0.000000, , , 
27642, , -8.787797, 1.875458, 1.471407, -0.044321, 1.789881, -0.885087, -0.089951, 0.318170, -0.161344, 0.716797, -0.427979, 0.201172, -0.087839, 0.018832, 0.014845, 0.999998, -0.000450, 0.001591, -0.000807, 95.798549, 83.598963, 157.700129, , , 0.000000, , , 
27643, , -8.555363, 1.688348, 1.370059, 0.044147, 1.652844, -1.141591, -0.135263, 0.295114, -0.195855, 0.718994, -0.427979, 0.211670, -0.085517, 0.016977, 0.013815, 0.999998, -0.000676, 0.001476, -0.000979, 97.361325, 83.690066, 159.349438, , , 0.000000, , , 
27644, , -8.390714, 1.507281, 1.326265, 0.160866, 1.556952, -1.328296, -0.138323, 0.276344, -0.227806, 0.718750, -0.421631, 0.209473, -0.083871, 0.015178, 0.013368, 0.999998, -0.000692, 0.001382, -0.001139, 98.484763, 83.756407, 160.580319, , , 0.000000, , , 
27645, , -8.312476, 1.324410, 1.228569, 0.258444, 1.416624, -1.428952, -0.096439, 0.255221, -0.241727, 0.718750, -0.423828, 0.209473, -0.083093, 0.013350, 0.012385, 0.999998, -0.000482, 0.001276, -0.001209, 99.983750, 83.868440, 162.142487, , , 0.000000, , , 
27646, , -8.185099, 1.264216, 1.076253, 0.220106, 1.277449, -1.562111, -0.020128, 0.238764, -0.243988, 0.725342, -0.425781, 0.213867, -0.081823, 0.012743, 0.010859, 0.999999, -0.000101, 0.001194, -0.001220, 101.032992, 83.947802, 163.221598, , , 0.000000, , , 
27647, , -8.136504, 1.234553, 0.983964, 0.190017, 1.209980, -1.615444, 0.076177, 0.226461, -0.237724, 0.712402, -0.423828, 0.211670, -0.081339, 0.012438, 0.009936, 0.999999, 0.000381, 0.001132, -0.001189, 102.569411, 84.053233, 164.721328, , , 0.000000, , , 
27648, , -8.160815, 1.372694, 0.862610, 0.010161, 1.183530, -1.577011, 0.181005, 0.215223, -0.239462, 0.725342, -0.425781, 0.222412, -0.081582, 0.013817, 0.008726, 0.999998, 0.000905, 0.001076, -0.001197, 103.617575, 84.118125, 165.704362, , , 0.000000, , , 
27649, , -8.172715, 1.583515, 0.813277, -0.203023, 1.264761, -1.547017, 0.270592, 0.204351, -0.237612, 0.720947, -0.421631, 0.226318, -0.081700, 0.015921, 0.008238, 0.999998, 0.001353, 0.001022, -0.001188, 105.235006, 84.219155, 167.173048, , , 0.000000, , , 
27650, , -8.263169, 1.753557, 0.767166, -0.367599, 1.319776, -1.442116, 0.331779, 0.196063, -0.241865, 0.720947, -0.413086, 0.226074, -0.082603, 0.017623, 0.007782, 0.999997, 0.001659, 0.000980, -0.001209, 106.350811, 84.277688, 168.175967, , , 0.000000, , , 
27651, , -8.313688, 1.907622, 0.752130, -0.510044, 1.406816, -1.381627, 0.382463, 0.191543, -0.254147, 0.723145, -0.415283, 0.230469, -0.083105, 0.019167, 0.007637, 0.999997, 0.001912, 0.000958, -0.001271, 108.081641, 84.382302, 169.693660, , , 0.000000, , , 
27652, , -8.412005, 2.034023, 0.744671, -0.617759, 1.479671, -1.275564, 0.424925, 0.189115, -0.270805, 0.725098, -0.408936, 0.228027, -0.084085, 0.020438, 0.007570, 0.999996, 0.002125, 0.000946, -0.001354, 109.353078, 84.458580, 170.772358, , , 0.000000, , , 
27653, , -8.523631, 2.171466, 0.773568, -0.719628, 1.601294, -1.159142, 0.452109, 0.187419, -0.292034, 0.731689, -0.404541, 0.236328, -0.085197, 0.021821, 0.007865, 0.999996, 0.002261, 0.000937, -0.001460, 111.289840, 84.575916, 172.456241, , , 0.000000, , , 
27654, , -8.563030, 2.324122, 0.771710, -0.855951, 1.695406, -1.111228, 0.459934, 0.184615, -0.313618, 0.729492, -0.406738, 0.238525, -0.085587, 0.023358, 0.007850, 0.999996, 0.002300, 0.000923, -0.001568, 112.610271, 84.675027, 173.568603, , , 0.000000, , , 
27655, , -8.668253, 2.523292, 0.777615, -1.025173, 1.831835, -0.997725, 0.447317, 0.186620, -0.330436, 0.727295, -0.398193, 0.242432, -0.086633, 0.025358, 0.007914, 0.999996, 0.002237, 0.000933, -0.001652, 114.780138, 84.802963, 175.488639, , , 0.000000, , , 
27656, , -8.790363, 2.614197, 0.844769, -1.067861, 1.958809, -0.877322, 0.412272, 0.192364, -0.345730, 0.729492, -0.400391, 0.242432, -0.087850, 0.026276, 0.008586, 0.999996, 0.002061, 0.000962, -0.001729, 116.313529, 84.899561, 176.857253, , , 0.000000, , , 
27657, , -9.002681, 2.683783, 1.045449, -1.022000, 2.204506, -0.678168, 0.376022, 0.188143, -0.356788, 0.731445, -0.396240, 0.246582, -0.089969, 0.026979, 0.010590, 0.999996, 0.001880, 0.000941, -0.001784, 118.709991, 85.028333, 179.045001, , , 0.000000, , , 
27658, , -9.223543, 2.581264, 1.100968, -0.896641, 2.223870, -0.474641, 0.338645, 0.174196, -0.353241, 0.733643, -0.391846, 0.246338, -0.092180, 0.025957, 0.011134, 0.999997, 0.001693, 0.000871, -0.001766, 120.115611, 85.119151, -179.658939, , , 0.000000, , , 
27659, , -9.663779, 2.533020, 1.126636, -0.818804, 2.258633, -0.050407, 0.325533, 0.161202, -0.354338, 0.731445, -0.389648, 0.252686, -0.096584, 0.025483, 0.011386, 0.999997, 0.001628, 0.000806, -0.001772, 122.513089, 85.241544, -177.441896, , , 0.000000, , , 
27660, , -10.193334, 2.441810, 1.105081, -0.719779, 2.215735, 0.466417, 0.340478, 0.137983, -0.355255, 0.731445, -0.383301, 0.256592, -0.101882, 0.024580, 0.011163, 0.999997, 0.001702, 0.000690, -0.001776, 123.792842, 85.337032, -176.274327, , , 0.000000, , , 
27661, , -10.615426, 2.417106, 1.175284, -0.647269, 2.301530, 0.873511, 0.370726, 0.103471, -0.357162, 0.738037, -0.383301, 0.263184, -0.106105, 0.024339, 0.011853, 0.999997, 0.001854, 0.000517, -0.001786, 126.089572, 85.467510, -174.185081, , , 0.000000, , , 
27662, , -11.073873, 2.435068, 1.202738, -0.629834, 2.354215, 1.325879, 0.405426, 0.067130, -0.356995, 0.733643, -0.383301, 0.260986, -0.110691, 0.024524, 0.012114, 0.999996, 0.002027, 0.000336, -0.001785, 127.180415, 85.576555, -173.217345, , , 0.000000, , , 
27663, , -11.375957, 2.452610, 1.239178, -0.625314, 2.428812, 1.618541, 0.426423, 0.033128, -0.352247, 0.739990, -0.374756, 0.264893, -0.113714, 0.024700, 0.012463, 0.999996, 0.002132, 0.000166, -0.001761, 129.284613, 85.719721, -171.353999, , , 0.000000, , , 
27664, , -11.543415, 2.402247, 1.287772, -0.564687, 2.454988, 1.777552, 0.455691, -0.005051, -0.341883, 0.739990, -0.376953, 0.269287, -0.115393, 0.024190, 0.012930, 0.999996, 0.002278, -0.000025, -0.001709, 129.880179, 85.841098, -170.891346, , , 0.000000, , , 
27665, , -11.646007, 2.282028, 1.310119, -0.465209, 2.438057, 1.866050, 0.480300, -0.030245, -0.309122, 0.731201, -0.372803, 0.269043, -0.116427, 0.022969, 0.013139, 0.999996, 0.002401, -0.000151, -0.001546, 131.611487, 85.982658, -169.433488, , , 0.000000, , , 
27666, , -11.655492, 2.097456, 1.378035, -0.286821, 2.401288, 1.862084, 0.534022, -0.048627, -0.270395, 0.742188, -0.370605, 0.270996, -0.116530, 0.021095, 0.013808, 0.999995, 0.002670, -0.000243, -0.001352, 131.667552, 86.077803, -169.526363, , , 0.000000, , , 
27667, , -11.829870, 1.943130, 1.411427, -0.140618, 2.367518, 2.023223, 0.612010, -0.062272, -0.219744, 0.744385, -0.366211, 0.277344, -0.118282, 0.019518, 0.014137, 0.999995, 0.003060, -0.000311, -0.001099, 132.903519, 86.190612, -168.641080, , , 0.000000, , , 
27668, , -12.276237, 1.764491, 1.536502, 0.098767, 2.375185, 2.456339, 0.709238, -0.073337, -0.169322, 0.748779, -0.368408, 0.277344, -0.122753, 0.017694, 0.015383, 0.999993, 0.003546, -0.000367, -0.000847, 132.148042, 86.258396, -169.597046, , , 0.000000, , , 
27669, , -12.811476, 1.681238, 1.677801, 0.274581, 2.463016, 2.979249, 0.826718, -0.108219, -0.126791, 0.744385, -0.366211, 0.275146, -0.128113, 0.016824, 0.016778, 0.999991, 0.004134, -0.000541, -0.000634, 132.695741, 86.349202, -169.524994, , , 0.000000, , , 
27670, , -13.422490, 1.646772, 1.618988, 0.310624, 2.373096, 3.595077, 0.953484, -0.154035, -0.107111, 0.744141, -0.359863, 0.283447, -0.134229, 0.016462, 0.016165, 0.999988, 0.004767, -0.000770, -0.000536, 130.802993, 86.420848, -171.706952, , , 0.000000, , , 
27671, , -14.304509, 1.704952, 1.398100, 0.194767, 2.220086, 4.488145, 1.067909, -0.200966, -0.111408, 0.750732, -0.362061, 0.285645, -0.143050, 0.017055, 0.013928, 0.999985, 0.005340, -0.001005, -0.000557, 130.700813, 86.539454, -172.424489, , , 0.000000, , , 
27672, , -15.200178, 1.773119, 1.221560, 0.088648, 2.074904, 5.398113, 1.169868, -0.251816, -0.119175, 0.750732, -0.357666, 0.291748, -0.152007, 0.017751, 0.012128, 0.999982, 0.005849, -0.001259, -0.000596, 128.129091, 86.642446, -175.360450, , , 0.000000, , , 
27673, , -15.687533, 1.670412, 1.113374, 0.128741, 1.913693, 5.886029, 1.277696, -0.318788, -0.112684, 0.757324, -0.357666, 0.296143, -0.156884, 0.016722, 0.010990, 0.999978, 0.006388, -0.001594, -0.000563, 127.056062, 86.799873, -177.170685, , , 0.000000, , , 
27674, , -14.846528, 1.558740, 1.204865, 0.208300, 1.862742, 5.046230, 1.399825, -0.407261, -0.074671, 0.755127, -0.357666, 0.293945, -0.148484, 0.015559, 0.011855, 0.999973, 0.006999, -0.002036, -0.000373, 122.371245, 86.911572, 177.771079, , , 0.000000, , , 
27675, , -13.025382, 1.480750, 1.425555, 0.290236, 1.964081, 3.223546, 1.519655, -0.482783, 0.002453, 0.752930, -0.359863, 0.293945, -0.130288, 0.014699, 0.014053, 0.999968, 0.007598, -0.002414, 0.000012, 118.764880, 87.045851, 173.285567, , , 0.000000, , , 
27676, , -11.472166, 1.535048, 1.418761, 0.160174, 1.925104, 1.687224, 1.590897, -0.520175, 0.096291, 0.750732, -0.355713, 0.300293, -0.114766, 0.015183, 0.014010, 0.999965, 0.007954, -0.002601, 0.000481, 111.458163, 87.045163, 165.477403, , , 0.000000, , , 
27677, , -10.564859, 1.789234, 1.355451, -0.115032, 1.987022, 0.803015, 1.535733, -0.541871, 0.186851, 0.750732, -0.351318, 0.300049, -0.105702, 0.017690, 0.013405, 0.999966, 0.007679, -0.002709, 0.000934, 106.051219, 87.038553, 159.180008, , , 0.000000, , , 
27678, , -10.422843, 2.175352, 1.130914, -0.550440, 1.969677, 0.697495, 1.328851, -0.565249, 0.254661, 0.761475, -0.349121, 0.306396, -0.104288, 0.021546, 0.011158, 0.999973, 0.006644, -0.002826, 0.001273, 98.602824, 86.882917, 151.187187, , , 0.000000, , , 
27679, , -10.567801, 2.368535, 0.862571, -0.845363, 1.816288, 0.865260, 0.999230, -0.603094, 0.332347, 0.759277, -0.355469, 0.304443, -0.105743, 0.023467, 0.008425, 0.999982, 0.004996, -0.003015, 0.001662, 92.764779, 86.723085, 144.764513, , , 0.000000, , , 
27680, , -10.750962, 2.211937, 0.420641, -0.975787, 1.278829, 1.053073, 0.628245, -0.658393, 0.410493, 0.757080, -0.357666, 0.302490, -0.107568, 0.021886, 0.003921, 0.999988, 0.003141, -0.003292, 0.002052, 85.817860, 86.398324, 137.503241, , , 0.000000, , , 
27681, , -10.920173, 1.493472, -0.279945, -0.839309, 0.194818, 1.178942, 0.334607, -0.728302, 0.503349, 0.759521, -0.364014, 0.298584, -0.109228, 0.014665, -0.003172, 0.999989, 0.001673, -0.003641, 0.002517, 80.337269, 86.058084, 131.816515, , , 0.000000, , , 
27682, , -11.042619, 0.488018, -1.057922, -0.532248, -1.163191, 1.217248, 0.226784, -0.804604, 0.624703, 0.759521, -0.368164, 0.294434, -0.110397, 0.004548, -0.011018, 0.999986, 0.001134, -0.004023, 0.003123, 74.847861, 85.520708, 126.177140, , , 0.000000, , , 
27683, , -10.975030, -0.175539, -1.645323, -0.387253, -2.145483, 1.070090, 0.262514, -0.877211, 0.730957, 0.763916, -0.372559, 0.286133, -0.109669, -0.002134, -0.016937, 0.999983, 0.001313, -0.004386, 0.003655, 70.786625, 84.969520, 121.948850, , , 0.000000, , , 
27684, , -10.594015, -0.561132, -1.850990, -0.231353, -2.656935, 0.620909, 0.352407, -0.915806, 0.839579, 0.757568, -0.383057, 0.282227, -0.105829, -0.006023, -0.019005, 0.999979, 0.001762, -0.004579, 0.004198, 67.390906, 84.248431, 118.325524, , , 0.000000, , , 
27685, , -10.222807, -0.707615, -1.811388, -0.106034, -2.812223, 0.205611, 0.427345, -0.913928, 0.943289, 0.757568, -0.389404, 0.280273, -0.102109, -0.007519, -0.018596, 0.999976, 0.002137, -0.004570, 0.004716, 65.242294, 83.541448, 115.916284, , , 0.000000, , , 
27686, , -9.955874, -0.767177, -1.754118, -0.023043, -2.917989, -0.103503, 0.495476, -0.871260, 1.043471, 0.761963, -0.393799, 0.278320, -0.099439, -0.008147, -0.017994, 0.999974, 0.002477, -0.004356, 0.005217, 63.845490, 82.713034, 114.214055, , , 0.000000, , , 
27687, , -10.123318, -0.635188, -1.570328, 0.022689, -2.840643, 0.050357, 0.561855, -0.798292, 1.124832, 0.749023, -0.410889, 0.270508, -0.101132, -0.006876, -0.016126, 0.999972, 0.002809, -0.003991, 0.005624, 63.305422, 81.931055, 113.342101, , , 0.000000, , , 
27688, , -10.036098, -0.617125, -1.410733, 0.137505, -2.833241, -0.063501, 0.569199, -0.748618, 1.145290, 0.749023, -0.419189, 0.270996, -0.100270, -0.006705, -0.014501, 0.999973, 0.002846, -0.003743, 0.005726, 63.034225, 81.089139, 112.729565, , , 0.000000, , , 
27689, , -9.842221, -0.548522, -1.318294, 0.165434, -2.812935, -0.275036, 0.588939, -0.685074, 1.134675, 0.742676, -0.427734, 0.271240, -0.098343, -0.006004, -0.013537, 0.999974, 0.002945, -0.003425, 0.005673, 63.074281, 80.330503, 112.426034, , , 0.000000, , , 
27690, , -9.487753, -0.496858, -1.215177, 0.205703, -2.765938, -0.644963, 0.612816, -0.604783, 1.087857, 0.742676, -0.438477, 0.269531, -0.094811, -0.005447, -0.012455, 0.999976, 0.003064, -0.003024, 0.005439, 63.273231, 79.565784, 112.263721, , , 0.000000, , , 
27691, , -9.047632, -0.266947, -0.959989, 0.203919, -2.451145, -1.049015, 0.611938, -0.523759, 1.019074, 0.740479, -0.438477, 0.271729, -0.090436, -0.003100, -0.009846, 0.999979, 0.003060, -0.002619, 0.005095, 63.620080, 78.908055, 112.257669, , , 0.000000, , , 
27692, , -8.505274, -0.090971, -0.693218, 0.243262, -2.131484, -1.552812, 0.598508, -0.445506, 0.915797, 0.744873, -0.448975, 0.270020, -0.085032, -0.001278, -0.007125, 0.999983, 0.002993, -0.002228, 0.004579, 63.991988, 78.281810, 112.280236, , , 0.000000, , , 
27693, , -8.091664, 0.014483, -0.494010, 0.294689, -1.906763, -1.938914, 0.551478, -0.368960, 0.796877, 0.742920, -0.451172, 0.272217, -0.080907, -0.000164, -0.005090, 0.999987, 0.002757, -0.001845, 0.003984, 64.379886, 77.777366, 112.351527, , , 0.000000, , , 
27694, , -7.798849, 0.005321, -0.427714, 0.347597, -1.866576, -2.236420, 0.473862, -0.305399, 0.666628, 0.734131, -0.455322, 0.272461, -0.077981, -0.000196, -0.004396, 0.999990, 0.002369, -0.001527, 0.003333, 64.700303, 77.321847, 112.395259, , , 0.000000, , , 
27695, , -7.539291, -0.005401, -0.294990, 0.442853, -1.768087, -2.491106, 0.383044, -0.239373, 0.536678, 0.736328, -0.461670, 0.270508, -0.075389, -0.000251, -0.003040, 0.999994, 0.001915, -0.001197, 0.002683, 64.978297, 76.983761, 112.453048, , , 0.000000, , , 
27696, , -7.401862, -0.049099, -0.170614, 0.563685, -1.715123, -2.632186, 0.290788, -0.187712, 0.415733, 0.738525, -0.461670, 0.279053, -0.074016, -0.000642, -0.001776, 0.999996, 0.001454, -0.000939, 0.002079, 65.179937, 76.693409, 112.483301, , , 0.000000, , , 
27697, , -7.236589, -0.143243, -0.104561, 0.673596, -1.718808, -2.813287, 0.211246, -0.129948, 0.285276, 0.727539, -0.466064, 0.277100, -0.072363, -0.001535, -0.001094, 0.999998, 0.001056, -0.000650, 0.001426, 65.332699, 76.512290, 112.513669, , , 0.000000, , , 
27698, , -7.072428, -0.221760, 0.026306, 0.813374, -1.659028, -2.982230, 0.176914, -0.077175, 0.174695, 0.731934, -0.463867, 0.276855, -0.070722, -0.002280, 0.000234, 0.999999, 0.000885, -0.000386, 0.000873, 65.462885, 76.379820, 112.538357, , , 0.000000, , , 
27699, , -6.894558, -0.224351, 0.218602, 0.935883, -1.492171, -3.139562, 0.199278, -0.022751, 0.087373, 0.729736, -0.468262, 0.281494, -0.068945, -0.002276, 0.002176, 0.999999, 0.000996, -0.000114, 0.000437, 65.641376, 76.327303, 112.602288, , , 0.000000, , , 
27700, , -6.838201, -0.017228, 0.535207, 1.004157, -1.120577, -3.120624, 0.269302, 0.035156, 0.041736, 0.727539, -0.468262, 0.279297, -0.068381, -0.000194, 0.005364, 0.999999, 0.001347, 0.000176, 0.000209, 65.931301, 76.296143, 112.737847, , , 0.000000, , , 
27701, , -6.668392, -0.106829, 0.845325, 1.273155, -0.919449, -3.276089, 0.360387, 0.092373, 0.012721, 0.729980, -0.474609, 0.279541, -0.066680, -0.001088, 0.008482, 0.999998, 0.001802, 0.000462, 0.000064, 66.376178, 76.309253, 112.980962, , , 0.000000, , , 
27702, , -6.473195, -0.054343, 1.056808, 1.372436, -0.689023, -3.435878, 0.488508, 0.142865, -0.019292, 0.725342, -0.461914, 0.289551, -0.064724, -0.000563, 0.010613, 0.999997, 0.002443, 0.000714, -0.000096, 66.959801, 76.338237, 113.290594, , , 0.000000, , , 
27703, , -6.496463, 0.439214, 1.320790, 1.217615, -0.170796, -3.283548, 0.597792, 0.176431, -0.055061, 0.736328, -0.461670, 0.291748, -0.064952, 0.004370, 0.013278, 0.999995, 0.002989, 0.000882, -0.000275, 67.664465, 76.404585, 113.660987, , , 0.000000, , , 
27704, , -6.686099, 1.158518, 1.547849, 0.899512, 0.441321, -2.925162, 0.648773, 0.197339, -0.096792, 0.727539, -0.463867, 0.298096, -0.066840, 0.011567, 0.015582, 0.999994, 0.003244, 0.000987, -0.000484, 68.387724, 76.487344, 114.020740, , , 0.000000, , , 
27705, , -6.859912, 1.752748, 1.682984, 0.610571, 0.916529, -2.618935, 0.625765, 0.198082, -0.131818, 0.731934, -0.463867, 0.304688, -0.068571, 0.017520, 0.016953, 0.999994, 0.003129, 0.000990, -0.000659, 69.101655, 76.596970, 114.383915, , , 0.000000, , , 
27706, , -7.022322, 2.195797, 1.906553, 0.491926, 1.358348, -2.350629, 0.548739, 0.201215, -0.169751, 0.734131, -0.461670, 0.310791, -0.070185, 0.021965, 0.019196, 0.999995, 0.002744, 0.001006, -0.000849, 69.720738, 76.717224, 114.695724, , , 0.000000, , , 
27707, , -7.126151, 2.471168, 1.976440, 0.374209, 1.596463, -2.189944, 0.404839, 0.187352, -0.226517, 0.733887, -0.457520, 0.310791, -0.071215, 0.024752, 0.019881, 0.999997, 0.002024, 0.000937, -0.001133, 70.221206, 76.873884, 114.969275, , , 0.000000, , , 
27708, , -7.109515, 2.497190, 1.984475, 0.366801, 1.646361, -2.205178, 0.244809, 0.181328, -0.281349, 0.740479, -0.455322, 0.316895, -0.071042, 0.025047, 0.019940, 0.999998, 0.001224, 0.000907, -0.001407, 70.535416, 77.047070, 115.146686, , , 0.000000, , , 
27709, , -7.080099, 2.521395, 1.977633, 0.341387, 1.691097, -2.235099, 0.094345, 0.172045, -0.335170, 0.733887, -0.451172, 0.312500, -0.070742, 0.025323, 0.019849, 0.999998, 0.000472, 0.000860, -0.001676, 70.746890, 77.258811, 115.305895, , , 0.000000, , , 
27710, , -7.008264, 2.401654, 2.033789, 0.449014, 1.687488, -2.331331, -0.024817, 0.161169, -0.377832, 0.733887, -0.451172, 0.312500, -0.070021, 0.024151, 0.020391, 0.999998, -0.000124, 0.000806, -0.001889, 70.779960, 77.477627, 115.353276, , , 0.000000, , , 
27711, , -6.903039, 2.184937, 2.062677, 0.596680, 1.606877, -2.481769, -0.104421, 0.149071, -0.403132, 0.733887, -0.453369, 0.319092, -0.068971, 0.021999, 0.020667, 0.999998, -0.000522, 0.000745, -0.002016, 70.770723, 77.721713, 115.402827, , , 0.000000, , , 
27712, , -6.978867, 2.211905, 2.178899, 0.650725, 1.718024, -2.398542, -0.145932, 0.135697, -0.413420, 0.736084, -0.448975, 0.316650, -0.069728, 0.022279, 0.021820, 0.999997, -0.000730, 0.000678, -0.002067, 70.630866, 77.952887, 115.344331, , , 0.000000, , , 
27713, , -7.154266, 2.086791, 2.213280, 0.759030, 1.651148, -2.253963, -0.174070, 0.120864, -0.411145, 0.740479, -0.446777, 0.316650, -0.071486, 0.021034, 0.022158, 0.999997, -0.000870, 0.000604, -0.002056, 70.500058, 78.195957, 115.310325, , , 0.000000, , , 
27714, , -7.443656, 2.066231, 2.129383, 0.717702, 1.550175, -1.983681, -0.170197, 0.098594, -0.409234, 0.740479, -0.451172, 0.321045, -0.074384, 0.020833, 0.021313, 0.999997, -0.000851, 0.000493, -0.002046, 70.233852, 78.415832, 115.137288, , , 0.000000, , , 
27715, , -7.995131, 2.163877, 1.852895, 0.477640, 1.352494, -1.447271, -0.185253, 0.080818, -0.412474, 0.740479, -0.446777, 0.318848, -0.079899, 0.021821, 0.018541, 0.999997, -0.000926, 0.000404, -0.002062, 69.977982, 78.651740, 114.982267, , , 0.000000, , , 
27716, , -8.749593, 1.984980, 1.597240, 0.458489, 0.941613, -0.760080, -0.176951, 0.081201, -0.423116, 0.742676, -0.442627, 0.318604, -0.087447, 0.020049, 0.015990, 0.999997, -0.000885, 0.000406, -0.002116, 69.620561, 78.873935, 114.720530, , , 0.000000, , , 
27717, , -9.655200, 1.978512, 1.496199, 0.438666, 0.741490, 0.118758, -0.123590, 0.084370, -0.437182, 0.736084, -0.438477, 0.318359, -0.096502, 0.020005, 0.014990, 0.999997, -0.000618, 0.000422, -0.002186, 69.364710, 79.123465, 114.529782, , , 0.000000, , , 
27718, , -10.597370, 2.006237, 1.565798, 0.513031, 0.682526, 1.052472, -0.054594, 0.090816, -0.467503, 0.746826, -0.431885, 0.320312, -0.105919, 0.020314, 0.015701, 0.999997, -0.000273, 0.000454, -0.002338, 69.028783, 79.370573, 114.218975, , , 0.000000, , , 
27719, , -11.624179, 2.125124, 1.788120, 0.634235, 0.794303, 2.095361, 0.065935, 0.085210, -0.497012, 0.744629, -0.431885, 0.320312, -0.116181, 0.021534, 0.017938, 0.999997, 0.000330, 0.000426, -0.002485, 68.794254, 79.651872, 113.939798, , , 0.000000, , , 
27720, , -12.452036, 2.186863, 1.924686, 0.712877, 0.842592, 2.927858, 0.180904, 0.059936, -0.524840, 0.750977, -0.421387, 0.324219, -0.124457, 0.022178, 0.019304, 0.999996, 0.000905, 0.000300, -0.002624, 68.400092, 79.922462, 113.433282, , , 0.000000, , , 
27721, , -13.050842, 2.343225, 1.980654, 0.649729, 0.948334, 3.544570, 0.296263, 0.044350, -0.529870, 0.757568, -0.423340, 0.326416, -0.130441, 0.023748, 0.019870, 0.999995, 0.001481, 0.000222, -0.002649, 68.099238, 80.211959, 112.953281, , , 0.000000, , , 
27722, , -13.218487, 2.451934, 1.967951, 0.539480, 1.036890, 3.724177, 0.380797, 0.020077, -0.518320, 0.753174, -0.419189, 0.322021, -0.132119, 0.024824, 0.019740, 0.999995, 0.001904, 0.000100, -0.002592, 67.648946, 80.469014, 112.274529, , , 0.000000, , , 
27723, , -13.009310, 2.604255, 1.902529, 0.343168, 1.180685, 3.533917, 0.444949, 0.009503, -0.474510, 0.757568, -0.414795, 0.330322, -0.130030, 0.026309, 0.019090, 0.999995, 0.002225, 0.000048, -0.002373, 67.345212, 80.720446, 111.706006, , , 0.000000, , , 
27724, , -12.914426, 2.571872, 1.721244, 0.205966, 1.085673, 3.421296, 0.492524, 0.029607, -0.394024, 0.761963, -0.410645, 0.330078, -0.129091, 0.025931, 0.017295, 0.999995, 0.002463, 0.000148, -0.001970, 67.104230, 80.911721, 111.175212, , , 0.000000, , , 
27725, , -13.143113, 2.559245, 1.578544, 0.114449, 0.985380, 3.633456, 0.539746, 0.063319, -0.301707, 0.753174, -0.406494, 0.338379, -0.131387, 0.025748, 0.015896, 0.999995, 0.002699, 0.000317, -0.001509, 67.242084, 81.083319, 110.999434, , , 0.000000, , , 
27726, , -13.488935, 2.480586, 1.568762, 0.180473, 0.902233, 3.961164, 0.593485, 0.098916, -0.209235, 0.755371, -0.406494, 0.338379, -0.134856, 0.024900, 0.015828, 0.999995, 0.002967, 0.000495, -0.001046, 67.540176, 81.191400, 110.955921, , , 0.000000, , , 
27727, , -14.161109, 2.698788, 1.707111, 0.183119, 1.088010, 4.662025, 0.642550, 0.106325, -0.130953, 0.750977, -0.408691, 0.340576, -0.141584, 0.027025, 0.017233, 0.999994, 0.003213, 0.000532, -0.000655, 68.132418, 81.281986, 111.180412, , , 0.000000, , , 
27728, , -14.548105, 3.090087, 1.816657, 0.039534, 1.409172, 5.104041, 0.646494, 0.102590, -0.090111, 0.759521, -0.397949, 0.346680, -0.145458, 0.030907, 0.018341, 0.999995, 0.003232, 0.000513, -0.000451, 68.650597, 81.326624, 111.328721, , , 0.000000, , , 
27729, , -15.077333, 3.704017, 1.787161, -0.342244, 1.784496, 5.709491, 0.564318, 0.068688, -0.080612, 0.752930, -0.397949, 0.342285, -0.150752, 0.037050, 0.018028, 0.999996, 0.002822, 0.000343, -0.000403, 69.148009, 81.381877, 111.502556, , , 0.000000, , , 
27730, , -15.767574, 4.209557, 1.768151, -0.641145, 2.057469, 6.460567, 0.382284, 0.037606, -0.086348, 0.755127, -0.397949, 0.353027, -0.157654, 0.042130, 0.017792, 0.999998, 0.001911, 0.000188, -0.000432, 69.297750, 81.408961, 111.430919, , , 0.000000, , , 
27731, , -15.716685, 4.812792, 1.903665, -0.943166, 2.610255, 6.499826, 0.068188, -0.040955, -0.084400, 0.757324, -0.402100, 0.353027, -0.157150, 0.048188, 0.019021, 1.000000, 0.000341, -0.000205, -0.000422, 69.119622, 81.443791, 111.209017, , , 0.000000, , , 
27732, , -14.301572, 4.888853, 2.152520, -0.908562, 3.016087, 5.125411, -0.319340, -0.150813, -0.052321, 0.752930, -0.400146, 0.346680, -0.143019, 0.048960, 0.021339, 0.999998, -0.001597, -0.000754, -0.000262, 68.250163, 81.410070, 110.512321, , , 0.000000, , , 
27733, , -12.451627, 4.574126, 2.078961, -0.893182, 2.970112, 3.251310, -0.712998, -0.257098, 0.041129, 0.763916, -0.402100, 0.346680, -0.124552, 0.045789, 0.020466, 0.999993, -0.003565, -0.001285, 0.000206, 67.045202, 81.330357, 109.704502, , , 0.000000, , , 
27734, , -10.810502, 3.738476, 1.835680, -0.646036, 2.380173, 1.506756, -1.032053, -0.346092, 0.183957, 0.755371, -0.406494, 0.336182, -0.108171, 0.037379, 0.017977, 0.999985, -0.005160, -0.001730, 0.000920, 65.483984, 81.119367, 108.719602, , , 0.000000, , , 
27735, , -9.524911, 2.847185, 1.550813, -0.357704, 1.675374, 0.101953, -1.218425, -0.415949, 0.353281, 0.757568, -0.414795, 0.325928, -0.095331, 0.028396, 0.015137, 0.999978, -0.006092, -0.002080, 0.001766, 64.013232, 80.833021, 107.935015, , , 0.000000, , , 
27736, , -8.695944, 2.101867, 1.203620, -0.168458, 0.960074, -0.838536, -1.292591, -0.457979, 0.534530, 0.753418, -0.425537, 0.320068, -0.087042, 0.020862, 0.011702, 0.999973, -0.006463, -0.002290, 0.002673, 62.630484, 80.404558, 107.280057, , , 0.000000, , , 
27737, , -8.331605, 1.539950, 1.021631, 0.060162, 0.424694, -1.289405, -1.274615, -0.479545, 0.709748, 0.751221, -0.442627, 0.310059, -0.083394, 0.015167, 0.009919, 0.999971, -0.006373, -0.002398, 0.003549, 61.633687, 79.915294, 107.007315, , , 0.000000, , , 
27738, , -8.335948, 1.311496, 0.944841, 0.165783, 0.125735, -1.324056, -1.189724, -0.507934, 0.868392, 0.755615, -0.442383, 0.312256, -0.083439, 0.012808, 0.009160, 0.999970, -0.005949, -0.002540, 0.004342, 60.821657, 79.302466, 106.870734, , , 0.000000, , , 
27739, , -8.438974, 1.189109, 0.886642, 0.228035, -0.107082, -1.248099, -1.072870, -0.538109, 0.986009, 0.744873, -0.459473, 0.295898, -0.084470, 0.011521, 0.008577, 0.999970, -0.005364, -0.002691, 0.004930, 60.288532, 78.657753, 106.951568, , , 0.000000, , , 
27740, , -8.829196, 1.301079, 0.852153, 0.162762, -0.236217, -0.852196, -0.968731, -0.576183, 1.063348, 0.747314, -0.470215, 0.292236, -0.088384, 0.012581, 0.008205, 0.999970, -0.004844, -0.002881, 0.005317, 59.782955, 77.930040, 106.998514, , , 0.000000, , , 
27741, , -9.301124, 1.525415, 0.798946, 0.013425, -0.332715, -0.359432, -0.908951, -0.618671, 1.084824, 0.740723, -0.480713, 0.277588, -0.093116, 0.014784, 0.007634, 0.999970, -0.004545, -0.003093, 0.005424, 59.334913, 77.213476, 107.070707, , , 0.000000, , , 
27742, , -9.632413, 1.689109, 0.707981, -0.125930, -0.490090, -0.020839, -0.896646, -0.671952, 1.076592, 0.734375, -0.491455, 0.275879, -0.096436, 0.016403, 0.006682, 0.999970, -0.004483, -0.003360, 0.005383, 58.734498, 76.453372, 106.978581, , , 0.000000, , , 
27743, , -9.663287, 1.644324, 0.519604, -0.197166, -0.790979, -0.030715, -0.881008, -0.715290, 1.055020, 0.736816, -0.508301, 0.261719, -0.096735, 0.015955, 0.004779, 0.999970, -0.004405, -0.003576, 0.005275, 58.125143, 75.722801, 106.868529, , , 0.000000, , , 
27744, , -9.398976, 1.605607, 0.482710, -0.194845, -0.912151, -0.311086, -0.844454, -0.747254, 1.025938, 0.730225, -0.512695, 0.253418, -0.094088, 0.015593, 0.004409, 0.999971, -0.004222, -0.003736, 0.005130, 57.430639, 74.966346, 106.647915, , , 0.000000, , , 
27745, , -8.962615, 1.524956, 0.397904, -0.207719, -1.037703, -0.774372, -0.819803, -0.756488, 0.988328, 0.728271, -0.519043, 0.243164, -0.089714, 0.014822, 0.003578, 0.999972, -0.004099, -0.003782, 0.004942, 56.780970, 74.254606, 106.458930, , , 0.000000, , , 
27746, , -8.547601, 1.450734, 0.359565, -0.195747, -1.121292, -1.210434, -0.779038, -0.749087, 0.959386, 0.723877, -0.531738, 0.237305, -0.085557, 0.014110, 0.003220, 0.999974, -0.003895, -0.003745, 0.004797, 56.130745, 73.530979, 106.244047, , , 0.000000, , , 
27747, , -8.136454, 1.368111, 0.311604, -0.183314, -1.200239, -1.645947, -0.732021, -0.730620, 0.940965, 0.719727, -0.533936, 0.228760, -0.081438, 0.013309, 0.002769, 0.999976, -0.003660, -0.003653, 0.004705, 55.589013, 72.849080, 106.113910, , , 0.000000, , , 
27748, , -7.836770, 1.349765, 0.205055, -0.248339, -1.307720, -1.970094, -0.700076, -0.709029, 0.932122, 0.717529, -0.544678, 0.216553, -0.078436, 0.013139, 0.001726, 0.999977, -0.003500, -0.003545, 0.004661, 55.080273, 72.153153, 105.998535, , , 0.000000, , , 
27749, , -7.526558, 1.302817, 0.122483, -0.275198, -1.398253, -2.307366, -0.673723, -0.675363, 0.928234, 0.708984, -0.557373, 0.210693, -0.075328, 0.012682, 0.000927, 0.999978, -0.003369, -0.003377, 0.004641, 54.683439, 71.494875, 105.984762, , , 0.000000, , , 
27750, , -7.326923, 1.315566, 0.073171, -0.316104, -1.457186, -2.519136, -0.658173, -0.646693, 0.932222, 0.704834, -0.561768, 0.202148, -0.073331, 0.012816, 0.000452, 0.999978, -0.003291, -0.003233, 0.004661, 54.324623, 70.822112, 106.001653, , , 0.000000, , , 
27751, , -7.182771, 1.384494, 0.032694, -0.388151, -1.486079, -2.660738, -0.645170, -0.609974, 0.930455, 0.711426, -0.570068, 0.194092, -0.071892, 0.013511, 0.000064, 0.999979, -0.003226, -0.003050, 0.004652, 54.055456, 70.184705, 106.105842, , , 0.000000, , , 
27752, , -7.180289, 1.350130, 0.043747, -0.333650, -1.579782, -2.687121, -0.639592, -0.577961, 0.929433, 0.696289, -0.580811, 0.188232, -0.071865, 0.013168, 0.000187, 0.999980, -0.003198, -0.002890, 0.004647, 53.811651, 69.539369, 106.234052, , , 0.000000, , , 
27753, , -7.107581, 1.353715, 0.111276, -0.279005, -1.580256, -2.756695, -0.633077, -0.552803, 0.917681, 0.691895, -0.589355, 0.175781, -0.071140, 0.013214, 0.000874, 0.999981, -0.003165, -0.002764, 0.004588, 53.615082, 68.927546, 106.409317, , , 0.000000, , , 
27754, , -7.107591, 1.317492, 0.116650, -0.224459, -1.673547, -2.783066, -0.633007, -0.529229, 0.901925, 0.687744, -0.597900, 0.174072, -0.071137, 0.012857, 0.000937, 0.999981, -0.003165, -0.002646, 0.004510, 53.415584, 68.314689, 106.582145, , , 0.000000, , , 
27755, , -7.128366, 1.297031, 0.143071, -0.166523, -1.744633, -2.781017, -0.624631, -0.509773, 0.879599, 0.681396, -0.606445, 0.157227, -0.071343, 0.012661, 0.001209, 0.999982, -0.003123, -0.002549, 0.004398, 53.240869, 67.735512, 106.777207, , , 0.000000, , , 
27756, , -7.178697, 1.256094, 0.082963, -0.141939, -1.902614, -2.778643, -0.616406, -0.492769, 0.847676, 0.683350, -0.608643, 0.159424, -0.071841, 0.012259, 0.000615, 0.999983, -0.003082, -0.002464, 0.004238, 53.048881, 67.163394, 106.949390, , , 0.000000, , , 
27757, , -7.256842, 1.201449, 0.060868, -0.080035, -2.044990, -2.747271, -0.602479, -0.477960, 0.809162, 0.666016, -0.617188, 0.151367, -0.072617, 0.011722, 0.000400, 0.999984, -0.003012, -0.002390, 0.004046, 52.862986, 66.627887, 107.120097, , , 0.000000, , , 
27758, , -7.415961, 1.154764, 0.020221, -0.026547, -2.226902, -2.645389, -0.576167, -0.459101, 0.754870, 0.672852, -0.625732, 0.141113, -0.074203, 0.011268, -0.000001, 0.999986, -0.002881, -0.002295, 0.003774, 52.658510, 66.113370, 107.255000, , , 0.000000, , , 
27759, , -7.570332, 1.137087, -0.036843, -0.006818, -2.401191, -2.543704, -0.553740, -0.443645, 0.695751, 0.670654, -0.627930, 0.134766, -0.075741, 0.011106, -0.000567, 0.999988, -0.002769, -0.002218, 0.003479, 52.448142, 65.641883, 107.369624, , , 0.000000, , , 
27760, , -7.640373, 1.102314, -0.045306, 0.043380, -2.512022, -2.513373, -0.516593, -0.422610, 0.627717, 0.666260, -0.629883, 0.128418, -0.076437, 0.010782, -0.000643, 0.999990, -0.002583, -0.002113, 0.003139, 52.221852, 65.201675, 107.444189, , , 0.000000, , , 
27761, , -7.724691, 1.056645, -0.036135, 0.112317, -2.614957, -2.468453, -0.470023, -0.396896, 0.553603, 0.659912, -0.634277, 0.126465, -0.077275, 0.010351, -0.000539, 0.999991, -0.002350, -0.001984, 0.002768, 52.001171, 64.811284, 107.495310, , , 0.000000, , , 
27762, , -7.875865, 0.954283, 0.032064, 0.266977, -2.723305, -2.366007, -0.398270, -0.372425, 0.475506, 0.657715, -0.638672, 0.120361, -0.078781, 0.009356, 0.000155, 0.999993, -0.001991, -0.001862, 0.002378, 51.783779, 64.461312, 107.505410, , , 0.000000, , , 
27763, , -7.914460, 0.896546, 0.096005, 0.365917, -2.761142, -2.349864, -0.310299, -0.351642, 0.397359, 0.648926, -0.640869, 0.114014, -0.079164, 0.008810, 0.000807, 0.999995, -0.001551, -0.001758, 0.001987, 51.586135, 64.157405, 107.480835, , , 0.000000, , , 
27764, , -7.843456, 0.834723, 0.256203, 0.506044, -2.675744, -2.405502, -0.204266, -0.326949, 0.322478, 0.657715, -0.651367, 0.116455, -0.078452, 0.008223, 0.002425, 0.999997, -0.001021, -0.001635, 0.001612, 51.415938, 63.896051, 107.420289, , , 0.000000, , , 
27765, , -7.782664, 0.848902, 0.374866, 0.559243, -2.584139, -2.434313, -0.088231, -0.309542, 0.253899, 0.653564, -0.649170, 0.112305, -0.077843, 0.008392, 0.003624, 0.999998, -0.000441, -0.001548, 0.001269, 51.283649, 63.671345, 107.326630, , , 0.000000, , , 
27766, , -7.882828, 0.865602, 0.424364, 0.588832, -2.607818, -2.334664, 0.030624, -0.293000, 0.191225, 0.655518, -0.649170, 0.114258, -0.078843, 0.008580, 0.004129, 0.999998, 0.000153, -0.001465, 0.000956, 51.188097, 63.484178, 107.199569, , , 0.000000, , , 
27767, , -7.946562, 0.892296, 0.320901, 0.515012, -2.725274, -2.305716, 0.135817, -0.276951, 0.132465, 0.655762, -0.651367, 0.108154, -0.079476, 0.008868, 0.003105, 0.999999, 0.000679, -0.001385, 0.000662, 51.128953, 63.325242, 107.043841, , , 0.000000, , , 
27768, , -8.259817, 0.946910, 0.193615, 0.434970, -2.949330, -2.049252, 0.243042, -0.246922, 0.070852, 0.651367, -0.651367, 0.105957, -0.082604, 0.009438, 0.001846, 0.999998, 0.001215, -0.001235, 0.000354, 51.112898, 63.211594, 106.869853, , , 0.000000, , , 
27769, , -8.777391, 1.049251, 0.106315, 0.363918, -3.203497, -1.581043, 0.347153, -0.200737, -0.004026, 0.649170, -0.649170, 0.112305, -0.087775, 0.010493, 0.000993, 0.999998, 0.001736, -0.001004, -0.000020, 51.146550, 63.140919, 106.682113, , , 0.000000, , , 
27770, , -9.317606, 1.183167, 0.044730, 0.280461, -3.422909, -1.070566, 0.438756, -0.145950, -0.117523, 0.649170, -0.647217, 0.114258, -0.093169, 0.011885, 0.000405, 0.999997, 0.002194, -0.000730, -0.000588, 51.199814, 63.151351, 106.460514, , , 0.000000, , , 
27771, , -10.088067, 1.379483, 0.011157, 0.186967, -3.679235, -0.320563, 0.530587, -0.070590, -0.241726, 0.653320, -0.642822, 0.118408, -0.100864, 0.013916, 0.000113, 0.999996, 0.002653, -0.000353, -0.001209, 51.284518, 63.233735, 106.212247, , , 0.000000, , , 
27772, , -10.910825, 1.567838, -0.000387, 0.111257, -3.925379, 0.486977, 0.624798, 0.010928, -0.377213, 0.657715, -0.642822, 0.118408, -0.109078, 0.015884, 0.000051, 0.999993, 0.003124, 0.000055, -0.001886, 51.399251, 63.420806, 105.940995, , , 0.000000, , , 
27773, , -11.416305, 1.672114, 0.116710, 0.131958, -3.961970, 1.023671, 0.725943, 0.088765, -0.513837, 0.662109, -0.636475, 0.128662, -0.114119, 0.017010, 0.001279, 0.999990, 0.003630, 0.000444, -0.002569, 51.541404, 63.682487, 105.632661, , , 0.000000, , , 
27774, , -11.452946, 1.733224, 0.345434, 0.192752, -3.713875, 1.162868, 0.840737, 0.169339, -0.632985, 0.664062, -0.636475, 0.137207, -0.114471, 0.017680, 0.003625, 0.999986, 0.004204, 0.000847, -0.003165, 51.737561, 64.045697, 105.316058, , , 0.000000, , , 
27775, , -11.004188, 1.747339, 0.663123, 0.291095, -3.208421, 0.874021, 0.967568, 0.251549, -0.732867, 0.670654, -0.623535, 0.145264, -0.109968, 0.017844, 0.006855, 0.999981, 0.004838, 0.001258, -0.003664, 52.004706, 64.464651, 104.994645, , , 0.000000, , , 
27776, , -10.589853, 1.873962, 1.042545, 0.352950, -2.599979, 0.668648, 1.069225, 0.349151, -0.810046, 0.672607, -0.621338, 0.155762, -0.105803, 0.019112, 0.010712, 0.999976, 0.005346, 0.001746, -0.004050, 52.369277, 64.976069, 104.722456, , , 0.000000, , , 
27777, , -10.383946, 1.904341, 1.290634, 0.442174, -2.221908, 0.578910, 1.133540, 0.436642, -0.869948, 0.677002, -0.612793, 0.161865, -0.103727, 0.019420, 0.013242, 0.999972, 0.005668, 0.002183, -0.004350, 52.808819, 65.523570, 104.488789, , , 0.000000, , , 
27778, , -10.628097, 2.094473, 1.455373, 0.409629, -1.983068, 0.927884, 1.180884, 0.505761, -0.937498, 0.687744, -0.606445, 0.172119, -0.106144, 0.021355, 0.014948, 0.999968, 0.005904, 0.002529, -0.004687, 53.302659, 66.151267, 104.291335, , , 0.000000, , , 
27779, , -11.106392, 2.269029, 1.410028, 0.279961, -1.981810, 1.433696, 1.189033, 0.567147, -1.021098, 0.691895, -0.595703, 0.188721, -0.110906, 0.023171, 0.014552, 0.999965, 0.005945, 0.002836, -0.005105, 53.802581, 66.814441, 104.091089, , , 0.000000, , , 
27780, , -11.888132, 2.438037, 1.437021, 0.225329, -2.014870, 2.238213, 1.201217, 0.610209, -1.108939, 0.700439, -0.583008, 0.200928, -0.118699, 0.024951, 0.014881, 0.999962, 0.006006, 0.003051, -0.005545, 54.298482, 67.559786, 103.885900, , , 0.000000, , , 
27781, , -12.497225, 2.485074, 1.383169, 0.185936, -2.089279, 2.831171, 1.221491, 0.628981, -1.191934, 0.700439, -0.572266, 0.213379, -0.124777, 0.025508, 0.014379, 0.999959, 0.006107, 0.003145, -0.005960, 54.762423, 68.324524, 103.628903, , , 0.000000, , , 
27782, , -12.808245, 2.368045, 1.317823, 0.225125, -2.136392, 3.101557, 1.280244, 0.633652, -1.248824, 0.702393, -0.565918, 0.221436, -0.127889, 0.024393, 0.013738, 0.999955, 0.006401, 0.003168, -0.006244, 55.228500, 69.146090, 103.345946, , , 0.000000, , , 
27783, , -13.231700, 2.099883, 1.290088, 0.404590, -2.284770, 3.444944, 1.415415, 0.633538, -1.276895, 0.708984, -0.551025, 0.233643, -0.132138, 0.021749, 0.013472, 0.999950, 0.007077, 0.003168, -0.006384, 55.749065, 69.953950, 103.033594, , , 0.000000, , , 
27784, , -13.575865, 2.031073, 1.151972, 0.353018, -2.344207, 3.756883, 1.588406, 0.627071, -1.275133, 0.717529, -0.540283, 0.256592, -0.135589, 0.021081, 0.012110, 0.999943, 0.007942, 0.003135, -0.006376, 56.375720, 70.789487, 102.737392, , , 0.000000, , , 
27785, , -13.587754, 2.164319, 1.143711, 0.226581, -2.076218, 3.834812, 1.762281, 0.606641, -1.249019, 0.719482, -0.521240, 0.264404, -0.135703, 0.022387, 0.012044, 0.999937, 0.008811, 0.003033, -0.006245, 57.107227, 71.577754, 102.441097, , , 0.000000, , , 
27786, , -13.075888, 2.667372, 1.389503, -0.000156, -1.221588, 3.548796, 1.836360, 0.592584, -1.200078, 0.725830, -0.512695, 0.278809, -0.130554, 0.027326, 0.014531, 0.999935, 0.009182, 0.002963, -0.006000, 57.930850, 72.370412, 102.206142, , , 0.000000, , , 
27787, , -12.218187, 3.359374, 1.821339, -0.211077, -0.027093, 2.987269, 1.751390, 0.601553, -1.135524, 0.732178, -0.500000, 0.289062, -0.121933, 0.034123, 0.018878, 0.999941, 0.008757, 0.003008, -0.005678, 58.802902, 73.104204, 102.066169, , , 0.000000, , , 
27788, , -11.591798, 4.402593, 2.143897, -0.691304, 1.267728, 2.687763, 1.459094, 0.635730, -1.066208, 0.738770, -0.493408, 0.301514, -0.115612, 0.044483, 0.022130, 0.999954, 0.007295, 0.003179, -0.005331, 59.669170, 73.845284, 102.103147, , , 0.000000, , , 
27789, , -11.209882, 5.151065, 2.460159, -0.943148, 2.273598, 2.523689, 0.978671, 0.671080, -0.995069, 0.736328, -0.480713, 0.311523, -0.111757, 0.051945, 0.025230, 0.999970, 0.004893, 0.003355, -0.004975, 60.425296, 74.530175, 102.303893, , , 0.000000, , , 
27790, , -11.086846, 5.670405, 2.561634, -1.197835, 2.903120, 2.506760, 0.352188, 0.693034, -0.925480, 0.736328, -0.474365, 0.319824, -0.110515, 0.057170, 0.026100, 0.999982, 0.001761, 0.003465, -0.004627, 60.981704, 75.213572, 102.675669, , , 0.000000, , , 
27791, , -11.027151, 5.280270, 2.444668, -1.037450, 2.698581, 2.315612, -0.269894, 0.697035, -0.825885, 0.744873, -0.468018, 0.319580, -0.109966, 0.053290, 0.024759, 0.999984, -0.001349, 0.003485, -0.004129, 61.323693, 75.819581, 103.186298, , , 0.000000, , , 
27792, , -11.049235, 4.134126, 2.247970, -0.448229, 1.862022, 2.043151, -0.711881, 0.703429, -0.667663, 0.744873, -0.470215, 0.323975, -0.110274, 0.041790, 0.022720, 0.999982, -0.003559, 0.003517, -0.003338, 61.648910, 76.370575, 103.944563, , , 0.000000, , , 
27793, , -11.158843, 2.818442, 1.965213, 0.207305, 0.807139, 1.833356, -0.923056, 0.677972, -0.482109, 0.747070, -0.465820, 0.323730, -0.111453, 0.028545, 0.019899, 0.999981, -0.004615, 0.003390, -0.002411, 62.037528, 76.796215, 104.885515, , , 0.000000, , , 
27794, , -11.031577, 1.700611, 1.795085, 0.823816, 0.013874, 1.462541, -0.895376, 0.608172, -0.312320, 0.742676, -0.470215, 0.328125, -0.110234, 0.017259, 0.018209, 0.999984, -0.004477, 0.003041, -0.001562, 62.542359, 77.136822, 105.932821, , , 0.000000, , , 
27795, , -10.616224, 0.885681, 1.693060, 1.289188, -0.476474, 0.886181, -0.701208, 0.513181, -0.151637, 0.740479, -0.470215, 0.326172, -0.106112, 0.008997, 0.017172, 0.999990, -0.003506, 0.002566, -0.000758, 63.150464, 77.347021, 106.965985, , , 0.000000, , , 
27796, , -10.029128, 0.592105, 1.685647, 1.467210, -0.516767, 0.254860, -0.396774, 0.404563, -0.004134, 0.738525, -0.472412, 0.323975, -0.100257, 0.005957, 0.017047, 0.999996, -0.001984, 0.002023, -0.000021, 63.891921, 77.472322, 107.961697, , , 0.000000, , , 
27797, , -9.350912, 0.783065, 1.813083, 1.407274, -0.132532, -0.360600, -0.079554, 0.305544, 0.102254, 0.736328, -0.476562, 0.330566, -0.093485, 0.007790, 0.018271, 0.999999, -0.000398, 0.001528, 0.000511, 64.701273, 77.494019, 108.835187, , , 0.000000, , , 
27798, , -8.612350, 1.321934, 1.776254, 0.983474, 0.381617, -0.983064, 0.129696, 0.217470, 0.159946, 0.736084, -0.470215, 0.332520, -0.086115, 0.013139, 0.017865, 0.999999, 0.000648, 0.001087, 0.000800, 65.500054, 77.483121, 109.581058, , , 0.000000, , , 
27799, , -8.001447, 1.886173, 1.690451, 0.514181, 0.842270, -1.478146, 0.189975, 0.150454, 0.174144, 0.738281, -0.474365, 0.336914, -0.080018, 0.018776, 0.016983, 0.999999, 0.000950, 0.000752, 0.000871, 66.175585, 77.425784, 110.159353, , , 0.000000, , , 
27800, , -7.608358, 2.037470, 1.654379, 0.373422, 1.005453, -1.836161, 0.093446, 0.102069, 0.114670, 0.731934, -0.476562, 0.339111, -0.076087, 0.020323, 0.016592, 1.000000, 0.000467, 0.000510, 0.000573, 66.625377, 77.407636, 110.569307, , , 0.000000, , , 
27801, , -7.182430, 1.823226, 1.617580, 0.470916, 0.917871, -2.298450, -0.080653, 0.069741, 0.037685, 0.736328, -0.476562, 0.336914, -0.071822, 0.018225, 0.016193, 1.000000, -0.000403, 0.000349, 0.000188, 66.811144, 77.401936, 110.804759, , , 0.000000, , , 
27802, , -6.812388, 1.492335, 1.426678, 0.531806, 0.636788, -2.742837, -0.221255, 0.063954, -0.034338, 0.729736, -0.476562, 0.334717, -0.068117, 0.014951, 0.014272, 0.999999, -0.001106, 0.000320, -0.000172, 66.836310, 77.451689, 110.964345, , , 0.000000, , , 
27803, , -6.743437, 1.013169, 1.475223, 0.887860, 0.356406, -2.901724, -0.283294, 0.063684, -0.074067, 0.731934, -0.478760, 0.334961, -0.067426, 0.010178, 0.014759, 0.999999, -0.001416, 0.000318, -0.000370, 66.779439, 77.503415, 111.070121, , , 0.000000, , , 
27804, , -6.691542, 0.684659, 1.580831, 1.180690, 0.222299, -3.008199, -0.263323, 0.060548, -0.110483, 0.738525, -0.476562, 0.330566, -0.066907, 0.006904, 0.015819, 0.999999, -0.001317, 0.000303, -0.000552, 66.692039, 77.591789, 111.139278, , , 0.000000, , , 
27805, , -6.408235, 0.610424, 1.672397, 1.270348, 0.301651, -3.291168, -0.171421, 0.073447, -0.145833, 0.731934, -0.474365, 0.338867, -0.064072, 0.006165, 0.016742, 0.999999, -0.000857, 0.000367, -0.000729, 66.649240, 77.683560, 111.193780, , , 0.000000, , , 
27806, , -6.419403, 0.993242, 1.707785, 1.024810, 0.603390, -3.202282, -0.056451, 0.078651, -0.186015, 0.734131, -0.476562, 0.336914, -0.064178, 0.009997, 0.017100, 0.999999, -0.000282, 0.000393, -0.000930, 66.640235, 77.815497, 111.222393, , , 0.000000, , , 
27807, , -6.423695, 1.057788, 1.662227, 0.942269, 0.628966, -3.189827, 0.054320, 0.067062, -0.230755, 0.736328, -0.476562, 0.332764, -0.064219, 0.010647, 0.016647, 0.999999, 0.000272, 0.000335, -0.001154, 66.622070, 77.950509, 111.169759, , , 0.000000, , , 
27808, , -6.531369, 1.321129, 1.751053, 0.824596, 0.868469, -3.027694, 0.167283, 0.051918, -0.262535, 0.742676, -0.465820, 0.334473, -0.065292, 0.013282, 0.017539, 0.999999, 0.000836, 0.000260, -0.001313, 66.587691, 78.115901, 111.041728, , , 0.000000, , , 
27809, , -6.717820, 1.787486, 1.778289, 0.528730, 1.191556, -2.756688, 0.190529, 0.042250, -0.290571, 0.738281, -0.463867, 0.332275, -0.067148, 0.017955, 0.017814, 0.999998, 0.000953, 0.000211, -0.001453, 66.517619, 78.276701, 110.856404, , , 0.000000, , , 
27810, , -6.833553, 1.910532, 1.825812, 0.476655, 1.307119, -2.619262, 0.147248, 0.015049, -0.320835, 0.740479, -0.465820, 0.340820, -0.068303, 0.019201, 0.018277, 0.999998, 0.000736, 0.000075, -0.001604, 66.301415, 78.462980, 110.554718, , , 0.000000, , , 
27811, , -6.991352, 2.038966, 1.879530, 0.425302, 1.421921, -2.439341, 0.088586, -0.012481, -0.343301, 0.744873, -0.465820, 0.332275, -0.069880, 0.020501, 0.018800, 0.999998, 0.000443, -0.000062, -0.001717, 65.959361, 78.638452, 110.151726, , , 0.000000, , , 
27812, , -7.065164, 2.094104, 1.915496, 0.400678, 1.490649, -2.356931, 0.023517, -0.036397, -0.352652, 0.738281, -0.457520, 0.336182, -0.070618, 0.021063, 0.019145, 0.999998, 0.000118, -0.000182, -0.001763, 65.474554, 78.826938, 109.648736, , , 0.000000, , , 
27813, , -7.106562, 2.052567, 1.889285, 0.394155, 1.452209, -2.327948, -0.029694, -0.056454, -0.344525, 0.744873, -0.461670, 0.336426, -0.071035, 0.020651, 0.018870, 0.999998, -0.000148, -0.000282, -0.001723, 64.918925, 78.991167, 109.097671, , , 0.000000, , , 
27814, , -7.089439, 1.905608, 1.937681, 0.507824, 1.401820, -2.368021, -0.050102, -0.071894, -0.332922, 0.749023, -0.455322, 0.333984, -0.070869, 0.019179, 0.019347, 0.999999, -0.000251, -0.000359, -0.001665, 64.283411, 79.157154, 108.484582, , , 0.000000, , , 
27815, , -7.198396, 1.781848, 1.964232, 0.599073, 1.326750, -2.280696, -0.030868, -0.082272, -0.297119, 0.746826, -0.455322, 0.340332, -0.071965, 0.017928, 0.019610, 0.999999, -0.000154, -0.000411, -0.001486, 63.685589, 79.288220, 107.891838, , , 0.000000, , , 
27816, , -7.199468, 1.653432, 1.910109, 0.630445, 1.210340, -2.305872, 0.041233, -0.095485, -0.250112, 0.755615, -0.455078, 0.340332, -0.071983, 0.016620, 0.019070, 0.999999, 0.000206, -0.000477, -0.001251, 63.112989, 79.401830, 107.290001, , , 0.000000, , , 
27817, , -7.305728, 1.668141, 1.819837, 0.548141, 1.146673, -2.206582, 0.137164, -0.091076, -0.192039, 0.753418, -0.453125, 0.335938, -0.073050, 0.016739, 0.018177, 0.999999, 0.000686, -0.000455, -0.000960, 62.709145, 79.474910, 106.797067, , , 0.000000, , , 
27818, , -7.580753, 1.716467, 1.708984, 0.440426, 1.061897, -1.937847, 0.246460, -0.079651, -0.140107, 0.753418, -0.453125, 0.340332, -0.075802, 0.017197, 0.017081, 0.999999, 0.001232, -0.000398, -0.000701, 62.432458, 79.533914, 106.376871, , , 0.000000, , , 
27819, , -8.268990, 2.008307, 1.619452, 0.207567, 1.090152, -1.221960, 0.343177, -0.056176, -0.100446, 0.753418, -0.446777, 0.342041, -0.082684, 0.020097, 0.016206, 0.999998, 0.001716, -0.000281, -0.000502, 62.365688, 79.568952, 106.106851, , , 0.000000, , , 
27820, , -9.132964, 2.250356, 1.602677, 0.073426, 1.105293, -0.335523, 0.393872, -0.033824, -0.079253, 0.753418, -0.444580, 0.342041, -0.091323, 0.022508, 0.016056, 0.999998, 0.001969, -0.000169, -0.000396, 62.381121, 79.607804, 105.897731, , , 0.000000, , , 
27821, , -10.214087, 2.529293, 1.655024, -0.020372, 1.158175, 0.776090, 0.420692, -0.013172, -0.083033, 0.755615, -0.444580, 0.344238, -0.102131, 0.025300, 0.016597, 0.999998, 0.002103, -0.000066, -0.000415, 62.501459, 79.645443, 105.772846, , , 0.000000, , , 
27822, , -11.332727, 2.713635, 1.805425, 0.023328, 1.207965, 1.917374, 0.436233, -0.015760, -0.092910, 0.757812, -0.444580, 0.342041, -0.113316, 0.027150, 0.018105, 0.999998, 0.002181, -0.000079, -0.000465, 62.569647, 79.694852, 105.592377, , , 0.000000, , , 
27823, , -12.200906, 2.780237, 2.097837, 0.240496, 1.311192, 2.805382, 0.448927, -0.044266, -0.086853, 0.757812, -0.442383, 0.346191, -0.122002, 0.027808, 0.021014, 0.999997, 0.002245, -0.000221, -0.000434, 62.612983, 79.726302, 105.372826, , , 0.000000, , , 
27824, , -12.435641, 2.808595, 2.152350, 0.274943, 1.331718, 3.044876, 0.471544, -0.098839, -0.071284, 0.757568, -0.440186, 0.350342, -0.124357, 0.028080, 0.021528, 0.999997, 0.002358, -0.000494, -0.000356, 62.497070, 79.741466, 104.984409, , , 0.000000, , , 
27825, , -12.135238, 2.678116, 2.081916, 0.299614, 1.239187, 2.723075, 0.501560, -0.132114, -0.047206, 0.755371, -0.436035, 0.348145, -0.121360, 0.026758, 0.020806, 0.999997, 0.002508, -0.000661, -0.000236, 62.381173, 79.729393, 104.572409, , , 0.000000, , , 
27826, , -11.460860, 2.439824, 1.757653, 0.189219, 0.959220, 1.995677, 0.533504, -0.161237, 0.003336, 0.753418, -0.438232, 0.350342, -0.114623, 0.024349, 0.017549, 0.999996, 0.002668, -0.000806, 0.000017, 62.234291, 79.688504, 104.116166, , , 0.000000, , , 
27827, , -11.079717, 2.255562, 1.426338, 0.055289, 0.659694, 1.564652, 0.599205, -0.135041, 0.071143, 0.753174, -0.438232, 0.356689, -0.110815, 0.022473, 0.014256, 0.999995, 0.002996, -0.000675, 0.000356, 62.342381, 79.615434, 103.874878, , , 0.000000, , , 
27828, , -11.482570, 2.192879, 1.098033, -0.117943, 0.314771, 1.924040, 0.658566, -0.073796, 0.136697, 0.753174, -0.436035, 0.354492, -0.114845, 0.021814, 0.011010, 0.999994, 0.003293, -0.000369, 0.000683, 62.704783, 79.529301, 103.863201, , , 0.000000, , , 
27829, , -12.620137, 2.402171, 0.988040, -0.262057, 0.185445, 3.067971, 0.694305, -0.000064, 0.158872, 0.755371, -0.431885, 0.360596, -0.126220, 0.023887, 0.009963, 0.999994, 0.003472, -0.000000, 0.000794, 63.360325, 79.447076, 104.123166, , , 0.000000, , , 
27830, , -14.414162, 2.566088, 1.041191, -0.214241, 0.016526, 4.863506, 0.690889, 0.062165, 0.141812, 0.750977, -0.427734, 0.364746, -0.144156, 0.025522, 0.010545, 0.999994, 0.003454, 0.000311, 0.000709, 64.113985, 79.392415, 104.490412, , , 0.000000, , , 
27831, , -16.613280, 2.968684, 1.041644, -0.331420, -0.071903, 7.092461, 0.650860, 0.098350, 0.070464, 0.755371, -0.423340, 0.364502, -0.166138, 0.029594, 0.010595, 0.999995, 0.003254, 0.000492, 0.000352, 64.885967, 79.379004, 104.894260, , , 0.000000, , , 
27832, , -18.643272, 3.602848, 1.290515, -0.416435, 0.216466, 9.213535, 0.543591, 0.081422, -0.027230, 0.746582, -0.425537, 0.371094, -0.186423, 0.036018, 0.013079, 0.999996, 0.002718, 0.000407, -0.000136, 65.385135, 79.415036, 105.088235, , , 0.000000, , , 
27833, , -19.024961, 4.212058, 1.824861, -0.356738, 0.968014, 9.731016, 0.348115, -0.002680, -0.122890, 0.755371, -0.423340, 0.366699, -0.190224, 0.042206, 0.018319, 0.999998, 0.001741, -0.000013, -0.000614, 65.454868, 79.477104, 104.954115, , , 0.000000, , , 
27834, , -16.886166, 4.445964, 2.372239, -0.197566, 1.885054, 7.707135, 0.071125, -0.113478, -0.180839, 0.753174, -0.427490, 0.366943, -0.168835, 0.044604, 0.023642, 0.999999, 0.000356, -0.000567, -0.000904, 64.940507, 79.545437, 104.392122, , , 0.000000, , , 
27835, , -14.235182, 4.146939, 2.375103, -0.165319, 2.131378, 5.050297, -0.279237, -0.212092, -0.168876, 0.750977, -0.425537, 0.366699, -0.142342, 0.041623, 0.023542, 0.999998, -0.001396, -0.001060, -0.000844, 63.994302, 79.579152, 103.590517, , , 0.000000, , , 
27836, , -11.911007, 3.342610, 1.885177, -0.188246, 1.611775, 2.595593, -0.670312, -0.301806, -0.091759, 0.761963, -0.425537, 0.356201, -0.119123, 0.033543, 0.018560, 0.999993, -0.003352, -0.001509, -0.000459, 62.641081, 79.548262, 102.606947, , , 0.000000, , , 
27837, , -9.771276, 2.120269, 1.201749, -0.069412, 0.613446, 0.238988, -1.032749, -0.340506, 0.024400, 0.753174, -0.436035, 0.352295, -0.097735, 0.021252, 0.011741, 0.999985, -0.005164, -0.001703, 0.000122, 61.191965, 79.443143, 101.732779, , , 0.000000, , , 
27838, , -8.627785, 0.831694, 0.524387, 0.169547, -0.607235, -1.151985, -1.303503, -0.329232, 0.172728, 0.759766, -0.436035, 0.345947, -0.086293, 0.008276, 0.005048, 0.999977, -0.006517, -0.001646, 0.000864, 59.829339, 79.263060, 101.107715, , , 0.000000, , , 
27839, , -8.321887, -0.339998, 0.116064, 0.610816, -1.712080, -1.683821, -1.440963, -0.290959, 0.335160, 0.755615, -0.446777, 0.333740, -0.083215, -0.003532, 0.001065, 0.999972, -0.007205, -0.001455, 0.001676, 58.801747, 79.012186, 100.899887, , , 0.000000, , , 
27840, , -8.398570, -1.182517, 0.070994, 1.154860, -2.399465, -1.759856, -1.464495, -0.269524, 0.473732, 0.753418, -0.448730, 0.329590, -0.083958, -0.012019, 0.000684, 0.999969, -0.007322, -0.001348, 0.002369, 58.015596, 78.700218, 100.955808, , , 0.000000, , , 
27841, , -8.768165, -1.654166, 0.179679, 1.594572, -2.765647, -1.478563, -1.376077, -0.271738, 0.530451, 0.755859, -0.459473, 0.323486, -0.087640, -0.016762, 0.001793, 0.999972, -0.006880, -0.001359, 0.002652, 57.411311, 78.359639, 101.141544, , , 0.000000, , , 
27842, , -9.171560, -1.817541, 0.136538, 1.718763, -3.022564, -1.132285, -1.190868, -0.318255, 0.515437, 0.747070, -0.468018, 0.315430, -0.091670, -0.018404, 0.001329, 0.999978, -0.005954, -0.001591, 0.002577, 56.760855, 78.015285, 101.177403, , , 0.000000, , , 
27843, , -9.562108, -1.572075, 0.013989, 1.497932, -3.054241, -0.738926, -0.960695, -0.359935, 0.461323, 0.747314, -0.472168, 0.304932, -0.095585, -0.015941, 0.000044, 0.999984, -0.004803, -0.001800, 0.002307, 56.121865, 77.680684, 101.084654, , , 0.000000, , , 
27844, , -9.814701, -1.240820, -0.190815, 1.141324, -3.063877, -0.473831, -0.777358, -0.392133, 0.372862, 0.751709, -0.478516, 0.301025, -0.098120, -0.012599, -0.002052, 0.999989, -0.003887, -0.001961, 0.001864, 55.374174, 77.383088, 100.779951, , , 0.000000, , , 
27845, , -9.694943, -0.910524, -0.442221, 0.728463, -3.032148, -0.577333, -0.657969, -0.403516, 0.281669, 0.751709, -0.480713, 0.298828, -0.096927, -0.009257, -0.004587, 0.999992, -0.003290, -0.002018, 0.001408, 54.599144, 77.118084, 100.369677, , , 0.000000, , , 
27846, , -9.138360, -0.664074, -0.580038, 0.429882, -2.878304, -1.105363, -0.625452, -0.387909, 0.205319, 0.753906, -0.484863, 0.288574, -0.091365, -0.006753, -0.005957, 0.999993, -0.003127, -0.001940, 0.001027, 53.751288, 76.900615, 99.873447, , , 0.000000, , , 
27847, , -8.496543, -0.498156, -0.539865, 0.308876, -2.627398, -1.705150, -0.633469, -0.338531, 0.154511, 0.749512, -0.487061, 0.288574, -0.084952, -0.005065, -0.005527, 0.999993, -0.003167, -0.001693, 0.000773, 52.978320, 76.713848, 99.450145, , , 0.000000, , , 
27848, , -7.458458, -0.531738, -0.792389, 0.114874, -2.616586, -2.764322, -0.715515, -0.283164, 0.089211, 0.747559, -0.489258, 0.280273, -0.074571, -0.005379, -0.008010, 0.999992, -0.003578, -0.001416, 0.000446, 52.150363, 76.584798, 99.027498, , , 0.000000, , , 
27849, , -6.975473, -0.714178, -0.678797, 0.307792, -2.561605, -3.257425, -0.733101, -0.194277, 0.073044, 0.749756, -0.493408, 0.269775, -0.069745, -0.007192, -0.006829, 0.999993, -0.003665, -0.000971, 0.000365, 51.500910, 76.483296, 98.789427, , , 0.000000, , , 
27850, , -6.652727, -1.020673, -0.598174, 0.579541, -2.638143, -3.618926, -0.709071, -0.110213, 0.074952, 0.751953, -0.497559, 0.269775, -0.066520, -0.010253, -0.005982, 0.999993, -0.003545, -0.000551, 0.000375, 50.996803, 76.422403, 98.696426, , , 0.000000, , , 
27851, , -6.482543, -1.131586, -0.469750, 0.750560, -2.581593, -3.788026, -0.636149, -0.034060, 0.077528, 0.749756, -0.493408, 0.265381, -0.064820, -0.011356, -0.004672, 0.999995, -0.003181, -0.000170, 0.000388, 50.713352, 76.375952, 98.777636, , , 0.000000, , , 
27852, , -6.386278, -1.093706, -0.282640, 0.854313, -2.397568, -3.847586, -0.524573, 0.021728, 0.091614, 0.749756, -0.497803, 0.261475, -0.063858, -0.010974, -0.002791, 0.999996, -0.002623, 0.000109, 0.000458, 50.584714, 76.357384, 98.963064, , , 0.000000, , , 
27853, , -6.558628, -0.666352, -0.106012, 0.670868, -2.033549, -3.576865, -0.428144, 0.052830, 0.099788, 0.749756, -0.499756, 0.261475, -0.065583, -0.006698, -0.001028, 0.999998, -0.002141, 0.000264, 0.000499, 50.612612, 76.332784, 99.242060, , , 0.000000, , , 
27854, , -6.689507, -0.139137, 0.013891, 0.369709, -1.637477, -3.335726, -0.402713, 0.055853, 0.086790, 0.743164, -0.504150, 0.259521, -0.066894, -0.001420, 0.000160, 0.999998, -0.002014, 0.000279, 0.000434, 50.608297, 76.330422, 99.484404, , , 0.000000, , , 
27855, , -6.856350, 0.143270, -0.031487, 0.141154, -1.530238, -3.129163, -0.414024, 0.052865, 0.051283, 0.745361, -0.501953, 0.255127, -0.068564, 0.001414, -0.000300, 0.999998, -0.002070, 0.000264, 0.000256, 50.571461, 76.327339, 99.688479, , , 0.000000, , , 
27856, , -7.053093, 0.306211, -0.105143, -0.019188, -1.524683, -2.918783, -0.419266, 0.047484, -0.005329, 0.747559, -0.501953, 0.259521, -0.070531, 0.003062, -0.001041, 0.999998, -0.002096, 0.000237, -0.000027, 50.405811, 76.363781, 99.774891, , , 0.000000, , , 
27857, , -7.189502, 0.426247, -0.030227, -0.055133, -1.422566, -2.752602, -0.433141, 0.041525, -0.059856, 0.749756, -0.504150, 0.257324, -0.071894, 0.004283, -0.000297, 0.999998, -0.002166, 0.000208, -0.000299, 50.170284, 76.405809, 99.785760, , , 0.000000, , , 
27858, , -7.513177, 0.518012, 0.006722, -0.092427, -1.405183, -2.414504, -0.445343, 0.044069, -0.124601, 0.747803, -0.510498, 0.255615, -0.075129, 0.005227, 0.000072, 0.999997, -0.002227, 0.000220, -0.000623, 49.802585, 76.494382, 99.679848, , , 0.000000, , , 
27859, , -7.764647, 0.557965, 0.013518, -0.116205, -1.424463, -2.160326, -0.447043, 0.046092, -0.185634, 0.745605, -0.506104, 0.251221, -0.077641, 0.005652, 0.000140, 0.999997, -0.002235, 0.000230, -0.000928, 49.370103, 76.593029, 99.496394, , , 0.000000, , , 
27860, , -7.934026, 0.524916, -0.012781, -0.113111, -1.489496, -2.002883, -0.421817, 0.052584, -0.228560, 0.747559, -0.499756, 0.255127, -0.079334, 0.005340, -0.000118, 0.999997, -0.002109, 0.000263, -0.001143, 48.861879, 76.730169, 99.232468, , , 0.000000, , , 
27861, , -7.947565, 0.558774, -0.064431, -0.183882, -1.496351, -1.989180, -0.366986, 0.064116, -0.254780, 0.745605, -0.501953, 0.246582, -0.079469, 0.005688, -0.000629, 0.999997, -0.001835, 0.000321, -0.001274, 48.386047, 76.864667, 98.957572, , , 0.000000, , , 
27862, , -7.928696, 0.625737, -0.051731, -0.241467, -1.422811, -1.991197, -0.306667, 0.084447, -0.267221, 0.747559, -0.501953, 0.248779, -0.079279, 0.006363, -0.000494, 0.999998, -0.001533, 0.000422, -0.001336, 47.925116, 77.030257, 98.674966, , , 0.000000, , , 
27863, , -7.986559, 0.706870, 0.007280, -0.276583, -1.322842, -1.909625, -0.254530, 0.111715, -0.272789, 0.749756, -0.504150, 0.250977, -0.079856, 0.007178, 0.000108, 0.999998, -0.001273, 0.000559, -0.001364, 47.555806, 77.189775, 98.443604, , , 0.000000, , , 
27864, , -7.946198, 0.697694, 0.062733, -0.247184, -1.255343, -1.938950, -0.196814, 0.129511, -0.257672, 0.749756, -0.501953, 0.250977, -0.079452, 0.007080, 0.000672, 0.999998, -0.000984, 0.000648, -0.001288, 47.243653, 77.368585, 98.249438, , , 0.000000, , , 
27865, , -7.894824, 0.687728, 0.184490, -0.172325, -1.137476, -1.969750, -0.096482, 0.146459, -0.233709, 0.743164, -0.493408, 0.248535, -0.078939, 0.006970, 0.001899, 0.999999, -0.000482, 0.000732, -0.001169, 47.085347, 77.524718, 98.141792, , , 0.000000, , , 
27866, , -7.776006, 0.769551, 0.261718, -0.196388, -0.980941, -2.058583, 0.001127, 0.161640, -0.189610, 0.751953, -0.499756, 0.252930, -0.077751, 0.007769, 0.002680, 0.999999, 0.000006, 0.000808, -0.000948, 47.060709, 77.687788, 98.126207, , , 0.000000, , , 
27867, , -7.725091, 0.766062, 0.379824, -0.121564, -0.863073, -2.089447, 0.098889, 0.182962, -0.156763, 0.747559, -0.495605, 0.257080, -0.077241, 0.007719, 0.003873, 0.999999, 0.000494, 0.000915, -0.000784, 47.220106, 77.825850, 98.229251, , , 0.000000, , , 
27868, , -7.874458, 0.802193, 0.563533, -0.027346, -0.710157, -1.909330, 0.182858, 0.199168, -0.131980, 0.749756, -0.495605, 0.254883, -0.078734, 0.008069, 0.005721, 0.999999, 0.000914, 0.000996, -0.000660, 47.482223, 77.979516, 98.400430, , , 0.000000, , , 
27869, , -8.276173, 0.947940, 0.682227, -0.046852, -0.593081, -1.475716, 0.273271, 0.206822, -0.111020, 0.747559, -0.489258, 0.259033, -0.082749, 0.009516, 0.006921, 0.999998, 0.001366, 0.001034, -0.000555, 47.881204, 78.107221, 98.646141, , , 0.000000, , , 
27870, , -8.835498, 1.133467, 0.769554, -0.109750, -0.501730, -0.886369, 0.343638, 0.216722, -0.111844, 0.749756, -0.495605, 0.265625, -0.088340, 0.011371, 0.007811, 0.999998, 0.001718, 0.001084, -0.000559, 48.321894, 78.258640, 98.905466, , , 0.000000, , , 
27871, , -9.509367, 1.276914, 0.728116, -0.215417, -0.554704, -0.208805, 0.401355, 0.224708, -0.136629, 0.751953, -0.491211, 0.269531, -0.095077, 0.012819, 0.007414, 0.999997, 0.002007, 0.001124, -0.000683, 48.799971, 78.403362, 99.156757, , , 0.000000, , , 
27872, , -10.452024, 1.321137, 0.648932, -0.262025, -0.739770, 0.713247, 0.467462, 0.236154, -0.185336, 0.749512, -0.487061, 0.273682, -0.104500, 0.013293, 0.006644, 0.999996, 0.002337, 0.001181, -0.000927, 49.236720, 78.592997, 99.339196, , , 0.000000, , , 
27873, , -11.418757, 1.495441, 0.725267, -0.306940, -0.723589, 1.699586, 0.558763, 0.240672, -0.217985, 0.751709, -0.482910, 0.275635, -0.114162, 0.015058, 0.007432, 0.999995, 0.002794, 0.001203, -0.001090, 49.707720, 78.778295, 99.490989, , , 0.000000, , , 
27874, , -12.048096, 1.545049, 0.884278, -0.215499, -0.646288, 2.347141, 0.669514, 0.224307, -0.254021, 0.747314, -0.478516, 0.281738, -0.120451, 0.015573, 0.009030, 0.999993, 0.003348, 0.001122, -0.001270, 50.126622, 78.993202, 99.536942, , , 0.000000, , , 
27875, , -12.362496, 1.548367, 1.082689, -0.071963, -0.509654, 2.682747, 0.817925, 0.199639, -0.275401, 0.749512, -0.474365, 0.288086, -0.123593, 0.015609, 0.011014, 0.999990, 0.004090, 0.000998, -0.001377, 50.563552, 79.188380, 99.502615, , , 0.000000, , , 
27876, , -12.016067, 1.529859, 1.502467, 0.214475, -0.098649, 2.390913, 0.993882, 0.165367, -0.285883, 0.749512, -0.470215, 0.294189, -0.120126, 0.015395, 0.015200, 0.999986, 0.004969, 0.000827, -0.001429, 50.986990, 79.395912, 99.363921, , , 0.000000, , , 
27877, , -11.218036, 1.531507, 1.739972, 0.359838, 0.259173, 1.633735, 1.159142, 0.137802, -0.282717, 0.747070, -0.461670, 0.300293, -0.112147, 0.015372, 0.017566, 0.999982, 0.005796, 0.000689, -0.001414, 51.471394, 79.572280, 99.179090, , , 0.000000, , , 
27878, , -10.850688, 1.701005, 1.683900, 0.201628, 0.433077, 1.288576, 1.272767, 0.131676, -0.282360, 0.753662, -0.455322, 0.306396, -0.108472, 0.017055, 0.017019, 0.999979, 0.006364, 0.000658, -0.001412, 51.988625, 79.766232, 98.973460, , , 0.000000, , , 
27879, , -11.040613, 1.902080, 1.627756, 0.041534, 0.528892, 1.495763, 1.296443, 0.129236, -0.280553, 0.747070, -0.455322, 0.316895, -0.110369, 0.019069, 0.016472, 0.999978, 0.006482, 0.000646, -0.001403, 52.545365, 79.939228, 98.782423, , , 0.000000, , , 
27880, , -11.641240, 1.983102, 1.558112, -0.030367, 0.472031, 2.089203, 1.261426, 0.132333, -0.281196, 0.751221, -0.450928, 0.318848, -0.116374, 0.019896, 0.015783, 0.999979, 0.006307, 0.000662, -0.001406, 53.069775, 80.132777, 98.590693, , , 0.000000, , , 
27881, , -12.657106, 2.018914, 1.561532, -0.009012, 0.367173, 3.093965, 1.206267, 0.120109, -0.284014, 0.755615, -0.444580, 0.329346, -0.126533, 0.020274, 0.015813, 0.999981, 0.006031, 0.000601, -0.001420, 53.554788, 80.304855, 98.379525, , , 0.000000, , , 
27882, , -13.455628, 1.775764, 1.596589, 0.218289, 0.131175, 3.850819, 1.192142, 0.066454, -0.278808, 0.749023, -0.436035, 0.335449, -0.134526, 0.017849, 0.016117, 0.999981, 0.005961, 0.000332, -0.001394, 53.872871, 80.474725, 98.018745, , , 0.000000, , , 
27883, , -13.809213, 1.390871, 1.442791, 0.389523, -0.274843, 4.133037, 1.265065, -0.003892, -0.252397, 0.750977, -0.425537, 0.339111, -0.138075, 0.013991, 0.014514, 0.999979, 0.006325, -0.000019, -0.001262, 54.116030, 80.590827, 97.528434, , , 0.000000, , , 
27884, , -13.445518, 0.951295, 1.220197, 0.519347, -0.661114, 3.695422, 1.410189, -0.083308, -0.196760, 0.753174, -0.419189, 0.345215, -0.134451, 0.009559, 0.012213, 0.999975, 0.007051, -0.000417, -0.000984, 54.299693, 80.672609, 96.905123, , , 0.000000, , , 
27885, , -12.997315, 0.653875, 0.776217, 0.380791, -1.097630, 3.172322, 1.606174, -0.113485, -0.122155, 0.753174, -0.416992, 0.349365, -0.129974, 0.006556, 0.007741, 0.999967, 0.008031, -0.000567, -0.000611, 54.689169, 80.692223, 96.365253, , , 0.000000, , , 
27886, , -12.731966, 1.111155, 0.679633, 0.000781, -0.779544, 2.961969, 1.751656, -0.132349, -0.040012, 0.753174, -0.410645, 0.355469, -0.127322, 0.011077, 0.006809, 0.999961, 0.008758, -0.000662, -0.000200, 55.240856, 80.685867, 95.917098, , , 0.000000, , , 
27887, , -12.063074, 1.750532, 0.836751, -0.290473, -0.096833, 2.401586, 1.724517, -0.126738, 0.042751, 0.750732, -0.404297, 0.363770, -0.120640, 0.017407, 0.008441, 0.999963, 0.008622, -0.000634, 0.000214, 55.988317, 80.624955, 95.671277, , , 0.000000, , , 
27888, , -11.478235, 2.378618, 1.144959, -0.430801, 0.666624, 1.938419, 1.477646, -0.067182, 0.115724, 0.752930, -0.395752, 0.365479, -0.114800, 0.023634, 0.011586, 0.999972, 0.007388, -0.000336, 0.000579, 56.870613, 80.566608, 95.717216, , , 0.000000, , , 
27889, , -11.493904, 3.040252, 1.406596, -0.595265, 1.328061, 2.070629, 1.057797, 0.018299, 0.167329, 0.755127, -0.400146, 0.372070, -0.114963, 0.030231, 0.014237, 0.999986, 0.005289, 0.000091, 0.000837, 57.878486, 80.491666, 96.122608, , , 0.000000, , , 
27890, , -11.805693, 3.226438, 1.672656, -0.451398, 1.580727, 2.429840, 0.493253, 0.104027, 0.187230, 0.752930, -0.397949, 0.372070, -0.118078, 0.032112, 0.016867, 0.999996, 0.002466, 0.000520, 0.000936, 58.809804, 80.448623, 96.789473, , , 0.000000, , , 
27891, , -12.305060, 2.749643, 1.819507, 0.004730, 1.210758, 2.868780, -0.057107, 0.182193, 0.209258, 0.755127, -0.404297, 0.374512, -0.123063, 0.027373, 0.018299, 0.999999, -0.000286, 0.000911, 0.001046, 59.710766, 80.398903, 97.734396, , , 0.000000, , , 
27892, , -12.896145, 1.835895, 1.713783, 0.527742, 0.336180, 3.310822, -0.424174, 0.217769, 0.256608, 0.746338, -0.410645, 0.372559, -0.128966, 0.018230, 0.017239, 0.999996, -0.002121, 0.001089, 0.001283, 60.552484, 80.349141, 98.842996, , , 0.000000, , , 
27893, , -13.204037, 0.788648, 1.555171, 1.093675, -0.629682, 3.446060, -0.631580, 0.208537, 0.305646, 0.746582, -0.412842, 0.372559, -0.132036, 0.007734, 0.015665, 0.999993, -0.003158, 0.001043, 0.001528, 61.337529, 80.253898, 100.004592, , , 0.000000, , , 
27894, , -13.070008, 0.038128, 1.292293, 1.389980, -1.355054, 3.176855, -0.700956, 0.164644, 0.357236, 0.744385, -0.416992, 0.370605, -0.130690, 0.000193, 0.013030, 0.999992, -0.003505, 0.000823, 0.001786, 61.994676, 80.134016, 101.087615, , , 0.000000, , , 
27895, , -12.292901, -0.517113, 1.101644, 1.607964, -1.785705, 2.304323, -0.652861, 0.126293, 0.429501, 0.739990, -0.425537, 0.368896, -0.122911, -0.005399, 0.011111, 0.999992, -0.003264, 0.000631, 0.002148, 62.673554, 79.949351, 102.154722, , , 0.000000, , , 
27896, , -11.271427, -0.728613, 1.172257, 1.803330, -1.748995, 1.261557, -0.532683, 0.109551, 0.513707, 0.733643, -0.432129, 0.373291, -0.112689, -0.007544, 0.011804, 0.999993, -0.002663, 0.000548, 0.002569, 63.440050, 79.731983, 103.252925, , , 0.000000, , , 
27897, , -10.213271, -0.743901, 1.400849, 1.991761, -1.461224, 0.223454, -0.394053, 0.105162, 0.577584, 0.731445, -0.434082, 0.371338, -0.102103, -0.007706, 0.014077, 0.999994, -0.001970, 0.000526, 0.002888, 64.337820, 79.460887, 104.393314, , , 0.000000, , , 
27898, , -9.174590, -0.582981, 1.658208, 2.081876, -1.020091, -0.763511, -0.267657, 0.102536, 0.612694, 0.731445, -0.442627, 0.369629, -0.091719, -0.006089, 0.016637, 0.999994, -0.001338, 0.000513, 0.003063, 65.273100, 79.185909, 105.511596, , , 0.000000, , , 
27899, , -8.128492, -0.268690, 1.927491, 2.072709, -0.452534, -1.728214, -0.227762, 0.096692, 0.593866, 0.727051, -0.447021, 0.365479, -0.081267, -0.002906, 0.019317, 0.999995, -0.001139, 0.000483, 0.002969, 66.159867, 78.897916, 106.545825, , , 0.000000, , , 
27900, , -7.189240, 0.047485, 2.071031, 1.957400, 0.027897, -2.591585, -0.286262, 0.093302, 0.536433, 0.720703, -0.451172, 0.369873, -0.071884, 0.000312, 0.020743, 0.999995, -0.001431, 0.000467, 0.002682, 66.870771, 78.655510, 107.449183, , , 0.000000, , , 
27901, , -6.503265, 0.410757, 2.118970, 1.740766, 0.440852, -3.200081, -0.404347, 0.076165, 0.447047, 0.722900, -0.455322, 0.365723, -0.065034, 0.004005, 0.021206, 0.999995, -0.002022, 0.000381, 0.002235, 67.361324, 78.435766, 108.184166, , , 0.000000, , , 
27902, , -5.968983, 0.617245, 1.949105, 1.455036, 0.577722, -3.700580, -0.583643, 0.064802, 0.342333, 0.720703, -0.457520, 0.365967, -0.059694, 0.006127, 0.019492, 0.999994, -0.002918, 0.000324, 0.001712, 67.565879, 78.286985, 108.746298, , , 0.000000, , , 
27903, , -5.687238, 0.804727, 1.730158, 1.151531, 0.622554, -3.958449, -0.773138, 0.047503, 0.237622, 0.711914, -0.464111, 0.368164, -0.056878, 0.008047, 0.017284, 0.999992, -0.003866, 0.000238, 0.001188, 67.524516, 78.170811, 109.154627, , , 0.000000, , , 
27904, , -5.453665, 0.753735, 1.553185, 1.030139, 0.515701, -4.209490, -0.953233, 0.022994, 0.133937, 0.718750, -0.470215, 0.360107, -0.054540, 0.007575, 0.015502, 0.999988, -0.004766, 0.000115, 0.000670, 67.181846, 78.122897, 109.374575, , , 0.000000, , , 
27905, , -5.315551, 0.494184, 1.325827, 1.014742, 0.208085, -4.410456, -1.069391, 0.028368, 0.038381, 0.716553, -0.470215, 0.357910, -0.053155, 0.005002, 0.013239, 0.999986, -0.005347, 0.000142, 0.000192, 66.712204, 78.108378, 109.518882, , , 0.000000, , , 
27906, , -5.249250, 0.159264, 1.268001, 1.181511, -0.046620, -4.541098, -1.080083, 0.032579, -0.048940, 0.720947, -0.480957, 0.352051, -0.052490, 0.001674, 0.012680, 0.999985, -0.005400, 0.000163, -0.000245, 66.123506, 78.159185, 109.561871, , , 0.000000, , , 
27907, , -5.306758, -0.121182, 1.283759, 1.377381, -0.232255, -4.533175, -0.963827, 0.018068, -0.118311, 0.716553, -0.480957, 0.347656, -0.053067, -0.001119, 0.012848, 0.999988, -0.004819, 0.000090, -0.000592, 65.514946, 78.224769, 109.502436, , , 0.000000, , , 
27908, , -5.296552, -0.186403, 1.337626, 1.448430, -0.223158, -4.546790, -0.767724, -0.005895, -0.152458, 0.716553, -0.483154, 0.339355, -0.052967, -0.001772, 0.013382, 0.999992, -0.003839, -0.000029, -0.000762, 64.882860, 78.320458, 109.318725, , , 0.000000, , , 
27909, , -5.370551, 0.031436, 1.380024, 1.320742, -0.044591, -4.427346, -0.558039, -0.041657, -0.160137, 0.716553, -0.480957, 0.343506, -0.053708, 0.000396, 0.013788, 0.999996, -0.002790, -0.000208, -0.000801, 64.299208, 78.392761, 109.047384, , , 0.000000, , , 
27910, , -5.360316, 0.313933, 1.411323, 1.131168, 0.184241, -4.380389, -0.373800, -0.082391, -0.161166, 0.714355, -0.483154, 0.341309, -0.053606, 0.003209, 0.014085, 0.999998, -0.001869, -0.000412, -0.000806, 63.674752, 78.473035, 108.641641, , , 0.000000, , , 
27911, , -5.420503, 0.672163, 1.327698, 0.811255, 0.365971, -4.262520, -0.246277, -0.118066, -0.158826, 0.720947, -0.482910, 0.334961, -0.054207, 0.006781, 0.013237, 0.999999, -0.001231, -0.000590, -0.000794, 63.068140, 78.523893, 108.164731, , , 0.000000, , , 
27912, , -5.618298, 1.050650, 1.158657, 0.422550, 0.474438, -4.015450, -0.167120, -0.141627, -0.161879, 0.716553, -0.476807, 0.336914, -0.056183, 0.010562, 0.011538, 0.999999, -0.000836, -0.000708, -0.000809, 62.397037, 78.586895, 107.590912, , , 0.000000, , , 
27913, , -6.125222, 1.400927, 1.016930, 0.090829, 0.521443, -3.469588, -0.140482, -0.153388, -0.178698, 0.720947, -0.480957, 0.334961, -0.061247, 0.014071, 0.010112, 0.999999, -0.000702, -0.000767, -0.000893, 61.725328, 78.636173, 106.985964, , , 0.000000, , , 
27914, , -6.750678, 1.591092, 0.905041, -0.105452, 0.458312, -2.834068, -0.155168, -0.160570, -0.185932, 0.725342, -0.482910, 0.330811, -0.067499, 0.015981, 0.008984, 0.999999, -0.000776, -0.000803, -0.000930, 60.966823, 78.702721, 106.316054, , , 0.000000, , , 
27915, , -7.461800, 1.741942, 0.880022, -0.210486, 0.411458, -2.113751, -0.178591, -0.160345, -0.192613, 0.723145, -0.480957, 0.328613, -0.074608, 0.017499, 0.008725, 0.999999, -0.000893, -0.000802, -0.000963, 60.223722, 78.753947, 105.660833, , , 0.000000, , , 
27916, , -8.003102, 1.697928, 0.795913, -0.234182, 0.223235, -1.599201, -0.193143, -0.166463, -0.197447, 0.727539, -0.482910, 0.333008, -0.080021, 0.017066, 0.007876, 0.999999, -0.000966, -0.000832, -0.000987, 59.396969, 78.820277, 104.943526, , , 0.000000, , , 
27917, , -8.377501, 1.459798, 0.738540, -0.109940, -0.049625, -1.277795, -0.155948, -0.171543, -0.190781, 0.729736, -0.472412, 0.323975, -0.083767, 0.014684, 0.007302, 0.999999, -0.000780, -0.000858, -0.000954, 58.627994, 78.863771, 104.248976, , , 0.000000, , , 
27918, , -8.698374, 1.245488, 0.601608, -0.061934, -0.350018, -1.012204, -0.057911, -0.156100, -0.174119, 0.725342, -0.478760, 0.322266, -0.086978, 0.012532, 0.005945, 0.999999, -0.000290, -0.000780, -0.000871, 57.926153, 78.917792, 103.579954, , , 0.000000, , , 
27919, , -9.183262, 1.172524, 0.545015, -0.045765, -0.528139, -0.554010, 0.086603, -0.113140, -0.157923, 0.725342, -0.476562, 0.326416, -0.091826, 0.011795, 0.005403, 0.999999, 0.000433, -0.000566, -0.000790, 57.481211, 78.960197, 103.074210, , , 0.000000, , , 
27920, , -9.991311, 1.328665, 0.548388, -0.134543, -0.561662, 0.264951, 0.227832, -0.058809, -0.146443, 0.725342, -0.470215, 0.326172, -0.099905, 0.013354, 0.005470, 0.999999, 0.001139, -0.000294, -0.000732, 57.218919, 79.028752, 102.686456, , , 0.000000, , , 
27921, , -11.039863, 1.590049, 0.657823, -0.206263, -0.488990, 1.347863, 0.327775, 0.011250, -0.136607, 0.723145, -0.470215, 0.328125, -0.110387, 0.015965, 0.006611, 0.999998, 0.001639, 0.000056, -0.000683, 57.248879, 79.098690, 102.523884, , , 0.000000, , , 
27922, , -12.110542, 1.921291, 0.824888, -0.282242, -0.320601, 2.469598, 0.375920, 0.065681, -0.146484, 0.723145, -0.470215, 0.334473, -0.121089, 0.019286, 0.008325, 0.999998, 0.001880, 0.000328, -0.000732, 57.379667, 79.205831, 102.450022, , , 0.000000, , , 
27923, , -12.929934, 2.206538, 1.106406, -0.246790, -0.050889, 3.348337, 0.373626, 0.120884, -0.159183, 0.725342, -0.466064, 0.334473, -0.129275, 0.022147, 0.011184, 0.999998, 0.001868, 0.000604, -0.000796, 57.677560, 79.320592, 102.533537, , , 0.000000, , , 
27924, , -13.286416, 2.274464, 1.383597, -0.077593, 0.160053, 3.736654, 0.346189, 0.166938, -0.170735, 0.725098, -0.461914, 0.336426, -0.132833, 0.022834, 0.013986, 0.999998, 0.001731, 0.000835, -0.000854, 58.018803, 79.470274, 102.690922, , , 0.000000, , , 
27925, , -13.183709, 2.125284, 1.627363, 0.208615, 0.279538, 3.635492, 0.354776, 0.202720, -0.168327, 0.720947, -0.463867, 0.340576, -0.131803, 0.021335, 0.016445, 0.999998, 0.001774, 0.001014, -0.000842, 58.517228, 79.613970, 102.989272, , , 0.000000, , , 
27926, , -12.742971, 1.921201, 1.774644, 0.453923, 0.355103, 3.183135, 0.411306, 0.241621, -0.133530, 0.725098, -0.459717, 0.344727, -0.127395, 0.019260, 0.017940, 0.999997, 0.002057, 0.001208, -0.000668, 59.175745, 79.766639, 103.430802, , , 0.000000, , , 
27927, , -12.179793, 1.567791, 1.865709, 0.769426, 0.298988, 2.581046, 0.521501, 0.283704, -0.059075, 0.722900, -0.457520, 0.346680, -0.121767, 0.015665, 0.018871, 0.999996, 0.002608, 0.001419, -0.000295, 60.196747, 79.878362, 104.162772, , , 0.000000, , , 
27928, , -11.805081, 1.271920, 1.870823, 0.999351, 0.185900, 2.164133, 0.688846, 0.332780, 0.031033, 0.720703, -0.455566, 0.357178, -0.118021, 0.012636, 0.018948, 0.999993, 0.003444, 0.001664, 0.000155, 61.567109, 79.970853, 105.165312, , , 0.000000, , , 
27929, , -11.975050, 1.061355, 1.916826, 1.239562, 0.058939, 2.297729, 0.883047, 0.383686, 0.112129, 0.722900, -0.451172, 0.363525, -0.119719, 0.010461, 0.019444, 0.999988, 0.004415, 0.001918, 0.000561, 63.382549, 80.015664, 106.493262, , , 0.000000, , , 
27930, , -12.612727, 1.021584, 1.891021, 1.346026, -0.074978, 2.910621, 1.097282, 0.415470, 0.180746, 0.718506, -0.455566, 0.372070, -0.126097, 0.009997, 0.019227, 0.999982, 0.005486, 0.002077, 0.000904, 65.477245, 80.040140, 107.993370, , , 0.000000, , , 
27931, , -13.590164, 1.140198, 1.930002, 1.431958, -0.112961, 3.885982, 1.309310, 0.421276, 0.224684, 0.714111, -0.447021, 0.378174, -0.135873, 0.011121, 0.019660, 0.999976, 0.006546, 0.002106, 0.001123, 67.814583, 80.017404, 109.603108, , , 0.000000, , , 
27932, , -14.354677, 1.476715, 1.939947, 1.354415, 0.025209, 4.684379, 1.487743, 0.383089, 0.242730, 0.713867, -0.447021, 0.393066, -0.143527, 0.014447, 0.019783, 0.999970, 0.007439, 0.001915, 0.001214, 70.103396, 79.981568, 111.073576, , , 0.000000, , , 
27933, , -14.760013, 2.226059, 1.942373, 0.995981, 0.522262, 5.197993, 1.550568, 0.311714, 0.215233, 0.711670, -0.438477, 0.407471, -0.147593, 0.021949, 0.019825, 0.999968, 0.007753, 0.001559, 0.001076, 72.206390, 79.921866, 112.305329, , , 0.000000, , , 
27934, , -14.583355, 3.084251, 2.028056, 0.595182, 1.261378, 5.165759, 1.415931, 0.210307, 0.151720, 0.702881, -0.436523, 0.407471, -0.145835, 0.030587, 0.020651, 0.999974, 0.007080, 0.001052, 0.000759, 73.799500, 79.888940, 113.111370, , , 0.000000, , , 
27935, , -13.714473, 3.919879, 2.111983, 0.155305, 2.099849, 4.451914, 1.086616, 0.114636, 0.074467, 0.700684, -0.432373, 0.415771, -0.137147, 0.039032, 0.021411, 0.999985, 0.005433, 0.000573, 0.000372, 74.876135, 79.864604, 113.570861, , , 0.000000, , , 
27936, , -12.700489, 4.764225, 2.137855, -0.374090, 2.939807, 3.595825, 0.529925, 0.014796, -0.013135, 0.705078, -0.438477, 0.416016, -0.127000, 0.047594, 0.021514, 0.999996, 0.002650, 0.000074, -0.000066, 75.204762, 79.887778, 113.607640, , , 0.000000, , , 
27937, , -11.616113, 4.692169, 1.975996, -0.527780, 2.965297, 2.507358, -0.168154, -0.049538, -0.089983, 0.705078, -0.432129, 0.409424, -0.116145, 0.046991, 0.019692, 1.000000, -0.000841, -0.000248, -0.000450, 74.914968, 79.929241, 113.409421, , , 0.000000, , , 
27938, , -10.884200, 3.971531, 1.585579, -0.476018, 2.287103, 1.645728, -0.809047, -0.088299, -0.111639, 0.705078, -0.436523, 0.413818, -0.108827, 0.039840, 0.015647, 0.999992, -0.004045, -0.000441, -0.000558, 74.066521, 79.989016, 113.028660, , , 0.000000, , , 
27939, , -10.393505, 2.939167, 1.132908, -0.268912, 1.284524, 0.968062, -1.288378, -0.119375, -0.091934, 0.713867, -0.440674, 0.403320, -0.103928, 0.029511, 0.011077, 0.999979, -0.006442, -0.000597, -0.000460, 72.907079, 80.019233, 112.599190, , , 0.000000, , , 
27940, , -10.120246, 1.682317, 0.889966, 0.271308, 0.212651, 0.479183, -1.571203, -0.145087, -0.047074, 0.705322, -0.447021, 0.397217, -0.101205, 0.016916, 0.008694, 0.999969, -0.007856, -0.000725, -0.000235, 71.495512, 80.029999, 112.089237, , , 0.000000, , , 
27941, , -9.935997, 0.279227, 0.789917, 1.054956, -0.878820, 0.063580, -1.657061, -0.198203, 0.012850, 0.707520, -0.453369, 0.386963, -0.099368, 0.002851, 0.007777, 0.999965, -0.008285, -0.000991, 0.000064, 69.987286, 79.985057, 111.520116, , , 0.000000, , , 
27942, , -10.013510, -0.920142, 0.513139, 1.623667, -1.961789, -0.071258, -1.513471, -0.253871, 0.094902, 0.705322, -0.455566, 0.382812, -0.100137, -0.009210, 0.005074, 0.999970, -0.007567, -0.001269, 0.000475, 68.446169, 79.893404, 110.845125, , , 0.000000, , , 
27943, , -10.275605, -1.326360, 0.152892, 1.643320, -2.555295, 0.093906, -1.283760, -0.298140, 0.193008, 0.711914, -0.461914, 0.370361, -0.102745, -0.013353, 0.001461, 0.999978, -0.006419, -0.001491, 0.000965, 67.098897, 79.726215, 110.221883, , , 0.000000, , , 
27944, , -10.592206, -1.604574, -0.215471, 1.584037, -3.080496, 0.327194, -1.059838, -0.328712, 0.215043, 0.714355, -0.468262, 0.364258, -0.105901, -0.016171, -0.002243, 0.999984, -0.005299, -0.001644, 0.001075, 65.798053, 79.550457, 109.527481, , , 0.000000, , , 
27945, , -11.043073, -2.033253, -0.409263, 1.767314, -3.623908, 0.675157, -0.754842, -0.350582, 0.179803, 0.707764, -0.470459, 0.362061, -0.110405, -0.020448, -0.004209, 0.999991, -0.003774, -0.001753, 0.000899, 64.651304, 79.372831, 108.799270, , , 0.000000, , , 
27946, , -10.885060, -1.975844, -0.561189, 1.599613, -3.690383, 0.508438, -0.404768, -0.394465, 0.107069, 0.709961, -0.476807, 0.355957, -0.108829, -0.019828, -0.005786, 0.999996, -0.002024, -0.001972, 0.000535, 63.465186, 79.233374, 107.840539, , , 0.000000, , , 
27947, , -9.947386, -1.446044, -0.709130, 1.051617, -3.285774, -0.344739, -0.138954, -0.419255, 0.015437, 0.707764, -0.470459, 0.355713, -0.099458, -0.014473, -0.007290, 0.999998, -0.000695, -0.002096, 0.000077, 62.321411, 79.116404, 106.755407, , , 0.000000, , , 
27948, , -8.517457, -0.865802, -0.843515, 0.445716, -2.736628, -1.668959, 0.004437, -0.404217, -0.063386, 0.714355, -0.474609, 0.349609, -0.085160, -0.008631, -0.008607, 0.999998, 0.000022, -0.002021, -0.000317, 61.154538, 79.055306, 105.578359, , , 0.000000, , , 
27949, , -7.180284, -0.461280, -0.858213, 0.060152, -2.234492, -2.919999, 0.050824, -0.344799, -0.110163, 0.712158, -0.474609, 0.349609, -0.071790, -0.004571, -0.008707, 0.999998, 0.000254, -0.001724, -0.000551, 60.167643, 79.014157, 104.541766, , , 0.000000, , , 
27950, , -5.809040, -0.395611, -1.106159, -0.249841, -2.113006, -4.281159, 0.039709, -0.272105, -0.142833, 0.720947, -0.472412, 0.347412, -0.058078, -0.003912, -0.011141, 0.999999, 0.000199, -0.001361, -0.000714, 59.260461, 79.023928, 103.609244, , , 0.000000, , , 
27951, , -5.170032, -0.271327, -0.934550, -0.255855, -1.791440, -4.872899, 0.021939, -0.161901, -0.148308, 0.718750, -0.468262, 0.349365, -0.051695, -0.002674, -0.009388, 0.999999, 0.000110, -0.000810, -0.000742, 58.668842, 79.049748, 102.992150, , , 0.000000, , , 
27952, , -4.985445, -0.238701, -0.556304, -0.024676, -1.470818, -5.010897, -0.027550, -0.062719, -0.145236, 0.716553, -0.472412, 0.347412, -0.049854, -0.002352, -0.005578, 1.000000, -0.000138, -0.000314, -0.000726, 58.245856, 79.120453, 102.592554, , , 0.000000, , , 
27953, , -5.045334, -0.289526, -0.156896, 0.294166, -1.237867, -4.919326, -0.111793, -0.002632, -0.140930, 0.714355, -0.466064, 0.347168, -0.050455, -0.002861, -0.001568, 1.000000, -0.000559, -0.000013, -0.000705, 57.984971, 79.189177, 102.390482, , , 0.000000, , , 
27954, , -5.299736, -0.269807, 0.191269, 0.535749, -1.022801, -4.629693, -0.188750, 0.037438, -0.124050, 0.716553, -0.468262, 0.349365, -0.052999, -0.002663, 0.001925, 0.999999, -0.000944, 0.000187, -0.000620, 57.751520, 79.279902, 102.278383, , , 0.000000, , , 
27955, , -5.689948, -0.078747, 0.227089, 0.440824, -0.928511, -4.211186, -0.238454, 0.044792, -0.118963, 0.716553, -0.472412, 0.345215, -0.056899, -0.000751, 0.002285, 0.999999, -0.001192, 0.000224, -0.000595, 57.569407, 79.352258, 102.230444, , , 0.000000, , , 
27956, , -6.297386, 0.114017, 0.031587, 0.185743, -1.030261, -3.601800, -0.277247, 0.038439, -0.134721, 0.723145, -0.474609, 0.343262, -0.062973, 0.001183, 0.000326, 0.999999, -0.001386, 0.000192, -0.000674, 57.264779, 79.448727, 102.097836, , , 0.000000, , , 
27957, , -6.724533, 0.117648, -0.277638, -0.024934, -1.311847, -3.210514, -0.280071, 0.019337, -0.152440, 0.720947, -0.468262, 0.343018, -0.067245, 0.001224, -0.002772, 0.999999, -0.001400, 0.000097, -0.000762, 56.931972, 79.529210, 101.920923, , , 0.000000, , , 
27958, , -7.090046, -0.012342, -0.583797, -0.143983, -1.671269, -2.899234, -0.234438, 0.000284, -0.165580, 0.725342, -0.470215, 0.343018, -0.070901, -0.000072, -0.005838, 0.999999, -0.001172, 0.000001, -0.000828, 56.492386, 79.628646, 101.626445, , , 0.000000, , , 
27959, , -7.356811, -0.068337, -0.681591, -0.171904, -1.817773, -2.653215, -0.170112, -0.022163, -0.187369, 0.723145, -0.468262, 0.343018, -0.073568, -0.000620, -0.006824, 0.999999, -0.000851, -0.000111, -0.000937, 56.043527, 79.712129, 101.267644, , , 0.000000, , , 
27960, , -7.495806, -0.039607, -0.697864, -0.210910, -1.823150, -2.511502, -0.095524, -0.041959, -0.213860, 0.720947, -0.468262, 0.338623, -0.074957, -0.000319, -0.006994, 0.999999, -0.000478, -0.000210, -0.001069, 55.474761, 79.820728, 100.761500, , , 0.000000, , , 
27961, , -7.429796, -0.078224, -0.597231, -0.128359, -1.758224, -2.569980, -0.031724, -0.050876, -0.246788, 0.725098, -0.463867, 0.344971, -0.074297, -0.000692, -0.005991, 0.999999, -0.000159, -0.000254, -0.001234, 54.904835, 79.921584, 100.199410, , , 0.000000, , , 
27962, , -7.319739, -0.098661, -0.521788, -0.080672, -1.687163, -2.670733, 0.046475, -0.046462, -0.272432, 0.727295, -0.463867, 0.340576, -0.073197, -0.000886, -0.005235, 0.999999, 0.000232, -0.000232, -0.001362, 54.273982, 80.054923, 99.548373, , , 0.000000, , , 
27963, , -7.298491, -0.000386, -0.409423, -0.087564, -1.523397, -2.663760, 0.138416, -0.015773, -0.294351, 0.725098, -0.455322, 0.342529, -0.072984, 0.000106, -0.004100, 0.999999, 0.000692, -0.000079, -0.001472, 53.777041, 80.187658, 98.961864, , , 0.000000, , , 
27964, , -7.282303, 0.282998, -0.366936, -0.274850, -1.275471, -2.633255, 0.202572, 0.025080, -0.316813, 0.731689, -0.461670, 0.346924, -0.072819, 0.002949, -0.003657, 0.999998, 0.001013, 0.000125, -0.001584, 53.307284, 80.364363, 98.384422, , , 0.000000, , , 
27965, , -7.347050, 0.525926, -0.332147, -0.434129, -1.071746, -2.530594, 0.237819, 0.076536, -0.351220, 0.725098, -0.451172, 0.346436, -0.073462, 0.005392, -0.003287, 0.999998, 0.001189, 0.000383, -0.001756, 52.969682, 80.553361, 97.902338, , , 0.000000, , , 
27966, , -7.582373, 0.709984, -0.309053, -0.556540, -0.936117, -2.269092, 0.252603, 0.128661, -0.395152, 0.731689, -0.448975, 0.346436, -0.075811, 0.007253, -0.003033, 0.999997, 0.001263, 0.000643, -0.001976, 52.614065, 80.800724, 97.412299, , , 0.000000, , , 
27967, , -7.869111, 0.892741, -0.232499, -0.637428, -0.766702, -1.952682, 0.248823, 0.180271, -0.442906, 0.731689, -0.448975, 0.352783, -0.078673, 0.009104, -0.002243, 0.999996, 0.001244, 0.000901, -0.002215, 52.338564, 81.066692, 96.987386, , , 0.000000, , , 
27968, , -8.227725, 1.145750, -0.123846, -0.744619, -0.526271, -1.554845, 0.250622, 0.214467, -0.470318, 0.733643, -0.442627, 0.356689, -0.082251, 0.011652, -0.001136, 0.999996, 0.001253, 0.001072, -0.002352, 52.015846, 81.377473, 96.532411, , , 0.000000, , , 
27969, , -8.624674, 1.374985, -0.049762, -0.857155, -0.326285, -1.127258, 0.272408, 0.252668, -0.501478, 0.731445, -0.436279, 0.358643, -0.086212, 0.013967, -0.000370, 0.999995, 0.001362, 0.001263, -0.002507, 51.785697, 81.694800, 96.140389, , , 0.000000, , , 
27970, , -9.172524, 1.712958, -0.043672, -1.093480, -0.106287, -0.546401, 0.301591, 0.265071, -0.518319, 0.733643, -0.432129, 0.354248, -0.091681, 0.017368, -0.000289, 0.999995, 0.001508, 0.001325, -0.002592, 51.477365, 82.044370, 95.670827, , , 0.000000, , , 
27971, , -9.978304, 1.941127, -0.001328, -1.222431, 0.033271, 0.278831, 0.347854, 0.273420, -0.530743, 0.737793, -0.425537, 0.366699, -0.099731, 0.019676, 0.000157, 0.999994, 0.001739, 0.001367, -0.002654, 51.225266, 82.381691, 95.213698, , , 0.000000, , , 
27972, , -10.761707, 1.997931, -0.178511, -1.395546, -0.082392, 1.044715, 0.376515, 0.257303, -0.556208, 0.735596, -0.425537, 0.371094, -0.107563, 0.020282, -0.001609, 0.999994, 0.001883, 0.001287, -0.002781, 50.757354, 82.744113, 94.540137, , , 0.000000, , , 
27973, , -11.644767, 1.823966, -0.340293, -1.401371, -0.356724, 1.889947, 0.442112, 0.238842, -0.577962, 0.735596, -0.410889, 0.372559, -0.116398, 0.018583, -0.003223, 0.999993, 0.002211, 0.001194, -0.002890, 50.211107, 83.088769, 93.732922, , , 0.000000, , , 
27974, , -12.199943, 1.782029, -0.578471, -1.563458, -0.534569, 2.419161, 0.553030, 0.237934, -0.572942, 0.739990, -0.410645, 0.376709, -0.121954, 0.018185, -0.005590, 0.999991, 0.002765, 0.001190, -0.002865, 49.597024, 83.449439, 92.810789, , , 0.000000, , , 
27975, , -12.624571, 1.754268, -0.700854, -1.650204, -0.601936, 2.830978, 0.698949, 0.267794, -0.563259, 0.737549, -0.400146, 0.382812, -0.126205, 0.017922, -0.006777, 0.999989, 0.003495, 0.001339, -0.002816, 49.212022, 83.796593, 92.018937, , , 0.000000, , , 
27976, , -12.918262, 1.618601, -0.535502, -1.451087, -0.526619, 3.125799, 0.892116, 0.302867, -0.548077, 0.739746, -0.393799, 0.386719, -0.129145, 0.016563, -0.005086, 0.999985, 0.004461, 0.001514, -0.002740, 48.994590, 84.169171, 91.301106, , , 0.000000, , , 
27977, , -12.936440, 1.677051, -0.260072, -1.292266, -0.206527, 3.168771, 1.108519, 0.337732, -0.535514, 0.743896, -0.389404, 0.399170, -0.129323, 0.017130, -0.002288, 0.999980, 0.005543, 0.001689, -0.002678, 49.132555, 84.530076, 90.800030, , , 0.000000, , , 
27978, , -13.192092, 2.019993, -0.103092, -1.399875, 0.233746, 3.457845, 1.274215, 0.385156, -0.550827, 0.739502, -0.374756, 0.405029, -0.131866, 0.020568, -0.000647, 0.999974, 0.006371, 0.001926, -0.002754, 49.423604, 84.934622, 90.373429, , , 0.000000, , , 
27979, , -14.184365, 2.454569, -0.158316, -1.711398, 0.555491, 4.470425, 1.357857, 0.448317, -0.591589, 0.743896, -0.370361, 0.413330, -0.141773, 0.024974, -0.001097, 0.999970, 0.006789, 0.002242, -0.002958, 49.994313, 85.361574, 90.163929, , , 0.000000, , , 
27980, , -15.734369, 2.886950, -0.037543, -1.876710, 0.984067, 6.043345, 1.369313, 0.497492, -0.641368, 0.745850, -0.357666, 0.427734, -0.157250, 0.029374, 0.000216, 0.999968, 0.006846, 0.002487, -0.003207, 50.562860, 85.847129, 89.960725, , , 0.000000, , , 
27981, , -17.311045, 3.163881, 0.184953, -1.851056, 1.387966, 7.633264, 1.337490, 0.513193, -0.670563, 0.747803, -0.349121, 0.431641, -0.172997, 0.032204, 0.002508, 0.999969, 0.006687, 0.002566, -0.003353, 51.203691, 86.332950, 89.833482, , , 0.000000, , , 
27982, , -18.378873, 3.303594, 0.193006, -1.901915, 1.613240, 8.694378, 1.336148, 0.479934, -0.655142, 0.747803, -0.338623, 0.439697, -0.183674, 0.033622, 0.002594, 0.999969, 0.006681, 0.002400, -0.003276, 51.650715, 86.817508, 89.526588, , , 0.000000, , , 
27983, , -17.463085, 3.101871, 0.229216, -1.714806, 1.691330, 7.760881, 1.388747, 0.430428, -0.583613, 0.741211, -0.328125, 0.447754, -0.174534, 0.031509, 0.002886, 0.999969, 0.006944, 0.002152, -0.002918, 52.333034, 87.234988, 89.411619, , , 0.000000, , , 
27984, , -15.230098, 2.922410, 0.513363, -1.337203, 1.963610, 5.520766, 1.487547, 0.411114, -0.446889, 0.745361, -0.317383, 0.453613, -0.152224, 0.029523, 0.005665, 0.999968, 0.007438, 0.002056, -0.002234, 53.986994, 87.599345, 90.225093, , , 0.000000, , , 
27985, , -12.975636, 2.843593, 0.839804, -0.967028, 2.282363, 3.264514, 1.509861, 0.443930, -0.261905, 0.743164, -0.308838, 0.466064, -0.129700, 0.028540, 0.008901, 0.999968, 0.007549, 0.002220, -0.001310, 58.219527, 87.867643, 93.593735, , , 0.000000, , , 
