PacketCounter, SampleTimeFine, Acc_X, Acc_Y, Acc_Z, FreeAcc_X, FreeAcc_Y, FreeAcc_Z, Gyr_X, Gyr_Y, Gyr_Z, Mag_X, Mag_Y, Mag_Z, VelInc_X, VelInc_Y, VelInc_Z, OriInc_q0, OriInc_q1, OriInc_q2, OriInc_q3, Roll, Pitch, Yaw, Latitude, Longitude, Altitude, Vel_X, Vel_Y, Vel_Z
27526, , 9.778991, -1.505794, -1.547481, 0.380276, 0.149539, 0.193501, 0.011175, 0.021436, 0.018823, -1.356201, 0.319092, -0.420654, 0.097790, -0.015048, -0.015486, 1.000000, 0.000056, 0.000107, 0.000094, -124.857265, -77.922769, 115.290099, , , 0.000000, , , 
27527, , 9.503773, -1.787343, -1.164911, -0.015161, -0.115014, -0.073085, 0.005406, 0.055863, 0.020201, -1.351807, 0.316895, -0.416260, 0.095036, -0.017864, -0.011676, 1.000000, 0.000027, 0.000279, 0.000101, -124.700388, -77.931519, 115.132840, , , 0.000000, , , 
27528, , 9.339740, -1.897795, -1.137172, -0.042855, -0.247853, -0.217779, -0.000316, 0.027223, 0.015979, -1.360596, 0.316895, -0.414062, 0.093397, -0.018971, -0.011384, 1.000000, -0.000002, 0.000136, 0.000080, -124.617941, -77.932860, 115.048334, , , 0.000000, , , 
27529, , 9.327613, -1.883139, -1.120743, -0.052660, -0.232545, -0.234076, 0.008794, 0.024759, 0.010528, -1.358398, 0.321289, -0.418457, 0.093276, -0.018826, -0.011220, 1.000000, 0.000044, 0.000124, 0.000053, -124.542245, -77.935945, 114.976080, , , 0.000000, , , 
27530, , 9.409985, -1.846997, -1.132573, -0.040406, -0.182879, -0.158318, 0.007116, 0.003814, 0.008800, -1.354004, 0.316895, -0.416260, 0.094100, -0.018465, -0.011328, 1.000000, 0.000036, 0.000019, 0.000044, -124.514745, -77.932470, 114.952203, , , 0.000000, , , 
27531, , 9.497869, -1.772263, -1.184264, 0.015974, -0.101381, -0.079118, 0.011891, 0.000536, -0.001748, -1.358398, 0.319092, -0.424805, 0.094979, -0.017723, -0.011844, 1.000000, 0.000059, 0.000003, -0.000009, -124.509404, -77.933470, 114.953708, , , 0.000000, , , 
27532, , 9.562563, -1.757296, -1.144812, -0.025705, -0.068234, -0.023102, 0.013023, -0.003212, 0.000047, -1.356201, 0.319092, -0.418457, 0.095626, -0.017572, -0.011448, 1.000000, 0.000065, -0.000016, 0.000000, -124.505758, -77.931271, 114.957756, , , 0.000000, , , 
27533, , 9.585755, -1.720473, -1.166929, 0.000213, -0.031449, -0.004147, 0.000910, -0.002143, -0.000106, -1.354004, 0.321289, -0.418457, 0.095858, -0.017205, -0.011668, 1.000000, 0.000005, -0.000011, -0.000001, -124.510130, -77.930625, 114.962760, , , 0.000000, , , 
27534, , 9.627164, -1.742640, -1.105671, -0.067369, -0.035031, 0.032912, 0.002579, -0.000166, 0.006005, -1.354004, 0.314697, -0.422607, 0.096272, -0.017423, -0.011057, 1.000000, 0.000013, -0.000001, 0.000030, -124.495715, -77.926357, 114.949721, , , 0.000000, , , 
27535, , 9.646447, -1.801200, -1.236310, 0.049277, -0.107703, 0.077343, -0.010974, 0.007249, 0.009173, -1.354004, 0.314697, -0.424561, 0.096465, -0.018008, -0.012366, 1.000000, -0.000055, 0.000036, 0.000046, -124.472086, -77.924376, 114.919128, , , 0.000000, , , 
27536, , 9.594486, -1.890349, -1.222056, 0.025516, -0.201046, 0.040227, 0.005055, 0.014472, 0.002908, -1.356201, 0.319092, -0.418457, 0.095944, -0.018902, -0.012228, 1.000000, 0.000025, 0.000072, 0.000015, -124.427143, -77.925815, 114.876388, , , 0.000000, , , 
27537, , 9.534349, -1.844987, -1.154136, -0.026666, -0.158217, -0.034442, 0.019764, 0.007580, -0.006177, -1.354004, 0.316895, -0.422607, 0.095342, -0.018452, -0.011547, 1.000000, 0.000099, 0.000038, -0.000031, -124.408420, -77.931189, 114.868822, , , 0.000000, , , 
27538, , 9.527890, -1.813889, -1.108419, -0.064448, -0.122076, -0.051518, 0.017098, 0.008742, -0.005163, -1.360596, 0.319092, -0.418457, 0.095278, -0.018140, -0.011090, 1.000000, 0.000085, 0.000044, -0.000026, -124.377791, -77.932935, 114.847943, , , 0.000000, , , 
27539, , 9.528069, -1.813478, -1.107554, -0.064448, -0.122076, -0.051518, 0.009471, 0.004362, -0.006544, -1.358398, 0.316895, -0.422607, 0.095280, -0.018137, -0.011078, 1.000000, 0.000047, 0.000022, -0.000033, -124.372618, -77.937441, 114.848203, , , 0.000000, , , 
27540, , 9.540429, -1.828655, -1.121153, -0.054463, -0.136464, -0.035205, 0.000556, 0.000065, -0.010929, -1.355957, 0.312500, -0.422607, 0.095403, -0.018292, -0.011212, 1.000000, 0.000003, 0.000000, -0.000055, -124.373354, -77.938196, 114.849977, , , 0.000000, , , 
27541, , 9.558892, -1.863054, -1.107330, -0.075836, -0.165314, -0.012866, -0.010224, 0.000552, -0.011592, -1.355957, 0.312500, -0.418213, 0.095588, -0.018637, -0.011073, 1.000000, -0.000051, 0.000003, -0.000058, -124.395548, -77.943855, 114.866681, , , 0.000000, , , 
27542, , 9.540829, -1.826247, -1.121672, -0.054143, -0.135235, -0.035186, -0.020939, -0.004229, -0.011560, -1.358398, 0.319092, -0.420654, 0.095407, -0.018269, -0.011213, 1.000000, -0.000105, -0.000021, -0.000058, -124.411783, -77.942211, 114.872049, , , 0.000000, , , 
27543, , 9.488542, -1.878752, -1.106411, -0.074803, -0.195273, -0.079108, -0.021917, -0.006748, -0.019677, -1.358398, 0.314697, -0.418457, 0.094884, -0.018798, -0.011059, 1.000000, -0.000110, -0.000034, -0.000098, -124.469132, -77.949323, 114.917851, , , 0.000000, , , 
27544, , 9.496783, -1.675477, -1.032171, -0.114615, 0.015119, -0.114846, -0.033279, -0.020531, -0.009229, -1.356201, 0.316895, -0.420410, 0.094968, -0.016761, -0.010309, 1.000000, -0.000166, -0.000103, -0.000046, -124.516330, -77.939588, 114.948011, , , 0.000000, , , 
27545, , 9.646682, -1.793846, -1.023666, -0.159823, -0.070807, 0.051069, -0.060748, -0.022475, -0.009322, -1.358154, 0.310303, -0.422363, 0.096467, -0.017946, -0.010220, 1.000000, -0.000304, -0.000112, -0.000047, -124.614940, -77.936679, 115.013254, , , 0.000000, , , 
27546, , 9.875246, -2.086232, -0.791386, -0.462021, -0.273903, 0.297240, -0.071014, -0.030480, -0.005476, -1.358398, 0.316895, -0.418457, 0.098753, -0.020868, -0.007891, 1.000000, -0.000355, -0.000152, -0.000027, -124.691594, -77.922952, 115.051773, , , 0.000000, , , 
27547, , 9.942341, -2.149711, -1.048607, -0.230815, -0.362242, 0.404283, -0.015957, -0.031483, 0.011331, -1.358398, 0.316895, -0.420410, 0.099426, -0.021492, -0.010469, 1.000000, -0.000080, -0.000157, 0.000057, -124.752705, -77.907344, 115.104920, , , 0.000000, , , 
27548, , 9.867811, -1.439931, -1.670438, 0.509483, 0.218921, 0.283350, 0.024782, -0.020146, 0.013178, -1.358398, 0.314697, -0.418457, 0.098681, -0.014391, -0.016696, 1.000000, 0.000124, -0.000101, 0.000066, -124.687854, -77.885794, 115.056477, , , 0.000000, , , 
27549, , 10.147164, -1.502848, -0.549333, -0.625861, 0.390982, 0.433321, -0.287232, 0.037963, 0.098402, -1.360596, 0.319092, -0.418457, 0.101478, -0.014986, -0.005491, 0.999999, -0.001436, 0.000190, 0.000492, -124.620025, -77.851783, 114.818767, , , 0.000000, , , 
27550, , 9.384946, -1.885826, -1.341539, 0.149418, -0.240932, -0.150758, -0.496084, 0.029295, 0.156496, -1.358643, 0.323486, -0.414307, 0.093862, -0.018818, -0.013382, 0.999997, -0.002480, 0.000146, 0.000782, -124.539699, -77.784153, 114.448673, , , 0.000000, , , 
27551, , 9.445837, -1.740671, -1.292994, 0.120348, -0.073178, -0.122189, -0.347316, 0.050897, 0.107827, -1.358643, 0.323486, -0.418457, 0.094464, -0.017378, -0.012924, 0.999998, -0.001737, 0.000254, 0.000539, -124.466442, -77.749758, 114.170094, , , 0.000000, , , 
27552, , 9.167226, -1.863003, -1.190690, 0.021038, -0.221645, -0.385228, -0.369328, 0.030431, 0.079583, -1.356445, 0.327881, -0.414307, 0.091678, -0.018616, -0.011886, 0.999998, -0.001847, 0.000152, 0.000398, -124.437669, -77.715161, 113.926627, , , 0.000000, , , 
27553, , 9.226889, -1.943815, -1.265354, 0.070122, -0.298075, -0.303678, -0.223149, 0.008801, 0.042664, -1.358643, 0.325684, -0.410156, 0.092272, -0.019433, -0.012636, 0.999999, -0.001116, 0.000044, 0.000213, -124.482995, -77.697859, 113.842161, , , 0.000000, , , 
27554, , 9.360230, -1.882643, -1.013359, -0.178308, -0.165630, -0.214463, -0.175982, -0.001320, 0.021330, -1.352051, 0.330078, -0.412354, 0.093604, -0.018825, -0.010116, 1.000000, -0.000880, -0.000007, 0.000107, -124.502338, -77.675919, 113.761833, , , 0.000000, , , 
27555, , 9.462737, -2.112164, -0.969645, -0.278417, -0.358706, -0.079309, -0.113843, -0.024807, 0.009197, -1.356445, 0.327881, -0.410156, 0.094630, -0.021123, -0.009673, 1.000000, -0.000569, -0.000124, 0.000046, -124.607561, -77.663516, 113.802773, , , 0.000000, , , 
27556, , 9.492563, -2.054337, -1.179004, -0.068787, -0.330731, -0.034907, -0.034701, -0.048776, -0.012267, -1.356689, 0.334229, -0.414551, 0.094927, -0.020551, -0.011763, 1.000000, -0.000174, -0.000244, -0.000061, -124.679673, -77.640916, 113.860839, , , 0.000000, , , 
27557, , 9.632596, -1.853224, -1.242091, 0.014651, -0.121608, 0.074129, 0.020475, -0.052799, -0.032723, -1.352051, 0.332275, -0.414551, 0.096326, -0.018547, -0.012397, 1.000000, 0.000102, -0.000264, -0.000164, -124.830302, -77.639071, 114.027051, , , 0.000000, , , 
27558, , 9.523789, -1.684304, -1.187006, 0.000361, 0.031331, -0.068590, 0.047312, -0.051208, -0.037733, -1.354248, 0.332275, -0.412354, 0.095238, -0.016858, -0.011850, 1.000000, 0.000237, -0.000256, -0.000189, -124.879714, -77.625075, 114.109208, , , 0.000000, , , 
27559, , 9.542761, -1.736462, -1.323471, 0.117060, -0.041239, -0.024135, 0.047371, -0.056498, -0.037081, -1.356445, 0.330078, -0.412354, 0.095428, -0.017379, -0.013212, 1.000000, 0.000237, -0.000282, -0.000185, -125.028961, -77.623931, 114.289790, , , 0.000000, , , 
27560, , 9.566550, -1.755175, -1.283387, 0.069233, -0.046465, -0.002507, 0.055407, -0.045739, -0.040224, -1.354248, 0.332275, -0.414551, 0.095665, -0.017567, -0.012817, 1.000000, 0.000277, -0.000229, -0.000201, -125.078231, -77.613200, 114.376327, , , 0.000000, , , 
27561, , 9.550410, -1.878540, -1.244621, 0.005836, -0.164192, -0.001401, 0.062420, -0.031457, -0.032692, -1.349854, 0.327881, -0.407959, 0.095503, -0.018797, -0.012437, 1.000000, 0.000312, -0.000157, -0.000163, -125.158563, -77.618135, 114.495183, , , 0.000000, , , 
27562, , 9.471458, -1.727621, -1.184934, -0.017777, -0.022489, -0.112356, 0.103022, -0.043659, -0.034968, -1.349609, 0.323486, -0.416504, 0.094714, -0.017287, -0.011838, 1.000000, 0.000515, -0.000218, -0.000175, -125.185874, -77.607043, 114.588044, , , 0.000000, , , 
27563, , 9.620570, -1.826024, -1.033709, -0.200807, -0.064269, 0.031795, 0.081979, -0.046471, -0.035890, -1.361084, 0.332031, -0.408203, 0.096205, -0.018273, -0.010322, 1.000000, 0.000410, -0.000232, -0.000179, -125.291579, -77.608445, 114.744353, , , 0.000000, , , 
27564, , 9.604212, -1.886537, -1.274549, 0.023002, -0.165236, 0.056282, 0.135465, -0.055661, -0.031811, -1.352051, 0.325684, -0.412109, 0.096043, -0.018872, -0.012732, 1.000000, 0.000677, -0.000278, -0.000159, -125.302405, -77.591991, 114.837718, , , 0.000000, , , 
27565, , 9.726498, -1.743442, -1.288162, 0.049412, -0.006328, 0.152313, 0.146708, -0.055078, -0.035069, -1.360840, 0.323486, -0.412109, 0.097265, -0.017442, -0.012868, 1.000000, 0.000734, -0.000275, -0.000175, -125.387692, -77.590100, 115.011108, , , 0.000000, , , 
27566, , 9.655197, -1.726636, -1.283839, 0.054583, -0.000863, 0.079197, 0.183129, -0.034641, -0.030760, -1.354004, 0.319092, -0.409912, 0.096552, -0.017269, -0.012837, 1.000000, 0.000916, -0.000173, -0.000154, -125.331740, -77.579858, 115.063174, , , 0.000000, , , 
27567, , 9.760421, -1.645217, -1.033015, -0.186330, 0.139628, 0.136456, 0.069540, -0.031722, -0.012558, -1.356445, 0.325684, -0.414307, 0.097605, -0.016455, -0.010320, 1.000000, 0.000348, -0.000159, -0.000063, -125.377470, -77.575204, 115.150801, , , 0.000000, , , 
27568, , 9.560621, -1.757659, -1.332067, 0.102816, -0.055046, -0.001691, -0.023037, -0.021169, 0.002370, -1.365234, 0.321289, -0.409912, 0.095608, -0.017577, -0.013309, 1.000000, -0.000115, -0.000106, 0.000012, -125.371610, -77.558638, 115.133561, , , 0.000000, , , 
27569, , 9.625388, -1.753674, -1.367331, 0.130280, -0.043769, 0.065277, -0.001169, -0.014783, 0.006028, -1.358643, 0.325684, -0.412109, 0.096255, -0.017534, -0.013666, 1.000000, -0.000006, -0.000074, 0.000030, -125.393701, -77.550936, 115.155511, , , 0.000000, , , 
27570, , 9.601880, -1.781321, -1.273759, 0.036776, -0.054941, 0.035525, 0.009375, 0.001059, 0.008145, -1.356445, 0.330078, -0.410156, 0.096019, -0.017809, -0.012739, 1.000000, 0.000047, 0.000005, 0.000041, -125.293925, -77.531036, 115.058687, , , 0.000000, , , 
27571, , 9.548218, -1.767885, -1.251112, 0.022339, -0.047793, -0.022060, 0.014923, -0.002861, 0.007969, -1.363037, 0.325684, -0.412109, 0.095483, -0.017674, -0.012511, 1.000000, 0.000075, -0.000014, 0.000040, -125.278664, -77.526385, 115.051830, , , 0.000000, , , 
27572, , 9.554272, -1.788751, -1.223531, -0.007336, -0.057426, -0.015881, 0.021738, -0.002079, 0.006611, -1.354248, 0.325684, -0.414307, 0.095543, -0.017883, -0.012236, 1.000000, 0.000109, -0.000010, 0.000033, -125.179341, -77.505654, 114.963575, , , 0.000000, , , 
27573, , 9.931569, -1.691167, -0.760676, -0.476817, 0.188870, 0.277492, -0.111297, 0.005363, 0.029320, -1.358643, 0.327637, -0.406006, 0.099318, -0.016901, -0.007600, 1.000000, -0.000556, 0.000027, 0.000147, -125.187043, -77.493671, 114.906145, , , 0.000000, , , 
27574, , 9.511221, -1.741769, -0.856555, -0.355518, 0.046161, -0.112056, -0.407659, 0.019574, 0.051154, -1.356445, 0.325684, -0.412109, 0.095116, -0.017411, -0.008539, 0.999998, -0.002038, 0.000098, 0.000256, -125.237224, -77.467486, 114.721766, , , 0.000000, , , 
27575, , 9.447052, -1.864303, -1.200171, -0.044065, -0.141799, -0.110071, -0.426660, -0.008783, 0.040492, -1.360840, 0.325684, -0.405762, 0.094475, -0.018649, -0.011958, 0.999998, -0.002133, -0.000044, 0.000202, -125.438533, -77.445595, 114.677549, , , 0.000000, , , 
27576, , 9.269300, -1.915296, -1.383404, 0.133332, -0.256408, -0.251383, -0.396368, -0.024331, 0.025681, -1.360840, 0.329834, -0.407959, 0.092697, -0.019168, -0.013785, 0.999998, -0.001982, -0.000122, 0.000128, -125.609335, -77.419696, 114.620996, , , 0.000000, , , 
27577, , 9.422582, -1.915816, -1.342679, 0.069960, -0.220420, -0.106776, -0.248347, -0.040643, 0.004307, -1.358643, 0.332031, -0.406006, 0.094229, -0.019173, -0.013384, 0.999999, -0.001242, -0.000203, 0.000022, -125.828572, -77.404092, 114.699841, , , 0.000000, , , 
27578, , 9.532926, -1.790110, -1.349415, 0.085378, -0.076828, -0.020400, -0.153318, -0.045899, -0.005574, -1.358643, 0.332031, -0.403809, 0.095332, -0.017914, -0.013459, 1.000000, -0.000767, -0.000229, -0.000028, -125.940557, -77.380116, 114.723737, , , 0.000000, , , 
27579, , 9.587143, -1.895685, -1.318347, 0.021471, -0.163004, 0.047229, -0.096559, -0.051801, -0.008959, -1.354248, 0.327881, -0.401611, 0.095874, -0.018968, -0.013149, 1.000000, -0.000483, -0.000259, -0.000045, -126.115146, -77.366841, 114.845978, , , 0.000000, , , 
27580, , 9.616007, -1.867749, -1.246174, -0.052018, -0.115967, 0.061161, -0.048593, -0.057855, -0.011976, -1.363281, 0.329834, -0.401611, 0.096163, -0.018686, -0.012429, 1.000000, -0.000243, -0.000289, -0.000060, -126.242731, -77.345155, 114.951733, , , 0.000000, , , 
27581, , 9.633361, -1.867816, -1.235636, -0.070142, -0.111025, 0.076698, -0.000694, -0.058605, -0.015640, -1.360840, 0.329834, -0.401611, 0.096336, -0.018686, -0.012328, 1.000000, -0.000003, -0.000293, -0.000078, -126.385863, -77.332567, 115.098062, , , 0.000000, , , 
27582, , 9.566058, -1.742954, -1.264322, -0.014671, -0.006604, -0.007301, 0.046361, -0.062499, -0.018551, -1.363037, 0.327637, -0.401611, 0.095663, -0.017435, -0.012617, 1.000000, 0.000232, -0.000312, -0.000093, -126.448379, -77.307364, 115.188804, , , 0.000000, , , 
27583, , 9.660482, -1.745769, -1.227905, -0.064468, 0.016379, 0.080540, 0.046219, -0.055895, -0.008609, -1.360840, 0.329834, -0.399658, 0.096607, -0.017459, -0.012256, 1.000000, 0.000231, -0.000279, -0.000043, -126.547985, -77.292415, 115.318113, , , 0.000000, , , 
27584, , 9.534626, -1.690584, -1.272062, -0.001815, 0.039736, -0.046228, 0.029538, -0.057986, -0.004379, -1.358887, 0.334229, -0.401855, 0.095350, -0.016906, -0.012695, 1.000000, 0.000148, -0.000290, -0.000022, -126.596289, -77.265299, 115.384178, , , 0.000000, , , 
27585, , 9.889499, -1.630689, -1.007459, -0.286689, 0.217707, 0.254424, -0.044318, -0.059763, 0.014935, -1.356445, 0.327637, -0.397461, 0.098899, -0.016302, -0.010041, 1.000000, -0.000222, -0.000299, 0.000075, -126.719466, -77.238194, 115.484521, , , 0.000000, , , 
27586, , 9.424987, -1.490618, -0.934636, -0.292842, 0.277097, -0.233370, -0.461577, -0.061834, 0.050745, -1.360840, 0.329834, -0.399658, 0.094257, -0.014904, -0.009283, 0.999997, -0.002308, -0.000309, 0.000254, -126.979898, -77.191151, 115.482906, , , 0.000000, , , 
27587, , 9.293991, -1.850304, -1.572482, 0.248354, -0.211789, -0.212270, -0.509828, -0.136198, 0.041132, -1.358887, 0.332031, -0.395508, 0.092954, -0.018524, -0.015614, 0.999996, -0.002549, -0.000681, 0.000206, -127.480765, -77.125409, 115.697116, , , 0.000000, , , 
27588, , 9.495974, -1.991600, -1.395953, 0.009729, -0.271504, -0.013971, -0.298341, -0.103197, 0.032242, -1.365479, 0.332031, -0.386963, 0.094970, -0.019921, -0.013881, 0.999999, -0.001492, -0.000516, 0.000161, -127.759812, -77.077647, 115.805369, , , 0.000000, , , 
27589, , 9.546213, -1.859768, -1.343250, -0.032109, -0.122075, 0.004506, -0.178503, -0.101235, 0.023835, -1.358887, 0.340820, -0.395508, 0.095471, -0.018598, -0.013368, 0.999999, -0.000893, -0.000506, 0.000119, -128.023365, -77.031623, 115.971006, , , 0.000000, , , 
27590, , 9.597427, -1.838890, -1.374538, -0.012602, -0.093756, 0.055064, -0.128925, -0.096421, 0.011383, -1.360840, 0.329834, -0.389160, 0.095982, -0.018392, -0.013687, 1.000000, -0.000645, -0.000482, 0.000057, -128.206640, -76.988299, 116.081546, , , 0.000000, , , 
27591, , 9.544826, -1.953562, -1.307579, -0.108697, -0.199522, 0.014735, -0.073783, -0.100330, 0.002684, -1.367920, 0.338379, -0.385010, 0.095455, -0.019539, -0.013021, 1.000000, -0.000369, -0.000502, 0.000013, -128.438244, -76.951905, 116.276063, , , 0.000000, , , 
27592, , 9.681351, -1.711647, -0.896471, -0.478608, 0.144253, 0.046931, -0.175742, -0.103832, 0.012444, -1.361084, 0.338623, -0.389160, 0.096819, -0.017118, -0.008899, 0.999999, -0.000879, -0.000519, 0.000062, -128.672744, -76.906937, 116.411231, , , 0.000000, , , 
27593, , 9.117487, -1.609501, -1.302516, -0.022562, 0.047807, -0.463207, -0.472536, -0.144583, -0.003144, -1.363281, 0.336426, -0.378662, 0.091184, -0.016127, -0.012921, 0.999997, -0.002363, -0.000723, -0.000016, -129.223661, -76.856860, 116.699149, , , 0.000000, , , 
27594, , 9.606333, -1.956606, -1.255219, -0.218596, -0.176273, 0.066918, -0.458248, -0.172001, -0.004385, -1.359131, 0.342773, -0.376709, 0.096074, -0.019597, -0.012425, 0.999997, -0.002291, -0.000860, -0.000022, -129.761023, -76.799159, 116.980902, , , 0.000000, , , 
27595, , 9.116235, -1.497650, -1.518140, 0.168184, 0.103726, -0.452433, -0.623053, -0.108852, -0.061156, -1.365723, 0.340576, -0.374512, 0.091166, -0.015051, -0.015085, 0.999995, -0.003115, -0.000544, -0.000306, -130.416304, -76.786527, 117.287590, , , 0.000000, , , 
27596, , 9.024703, -1.844489, -1.566858, 0.116084, -0.267041, -0.473654, -0.696537, -0.203969, -0.094263, -1.363525, 0.344971, -0.366211, 0.090254, -0.018542, -0.015512, 0.999993, -0.003483, -0.001020, -0.000471, -131.290870, -76.752978, 117.777916, , , 0.000000, , , 
27597, , 9.377645, -2.253473, -1.721363, 0.094948, -0.634066, -0.036681, -0.593617, -0.139723, -0.146418, -1.363525, 0.342773, -0.368164, 0.093772, -0.022654, -0.017081, 0.999995, -0.002968, -0.000699, -0.000732, -132.120981, -76.763165, 118.281613, , , 0.000000, , , 
27598, , 8.873832, -1.777944, -1.444919, -0.026248, -0.236467, -0.650970, -0.403376, -0.176250, -0.199023, -1.370117, 0.338379, -0.361816, 0.088733, -0.017897, -0.014335, 0.999997, -0.002017, -0.000881, -0.000995, -132.942937, -76.776792, 118.891104, , , 0.000000, , , 
27599, , 9.283329, -2.205369, -1.040403, -0.601203, -0.487490, -0.245711, -0.425231, -0.261113, -0.229490, -1.367920, 0.340576, -0.355469, 0.092821, -0.022182, -0.010236, 0.999996, -0.002126, -0.001306, -0.001147, -134.032180, -76.770147, 119.760105, , , 0.000000, , , 
27600, , 9.484147, -2.384496, -0.884845, -0.855550, -0.597781, -0.049063, -0.246028, -0.290383, -0.242851, -1.370117, 0.338379, -0.353271, 0.094825, -0.023971, -0.008681, 0.999997, -0.001230, -0.001452, -0.001214, -135.025527, -76.750519, 120.636845, , , 0.000000, , , 
27601, , 9.466740, -1.706006, -1.539116, -0.089055, -0.125314, -0.072322, -0.178534, -0.309022, -0.270762, -1.372314, 0.336182, -0.346924, 0.094668, -0.017202, -0.015230, 0.999997, -0.000893, -0.001545, -0.001354, -136.123181, -76.733712, 121.659865, , , 0.000000, , , 
27602, , 9.356154, -0.996114, -1.865854, 0.385024, 0.436150, -0.238105, -0.131034, -0.355189, -0.290050, -1.365723, 0.336182, -0.342773, 0.093580, -0.010109, -0.018486, 0.999997, -0.000655, -0.001776, -0.001450, -137.194871, -76.697194, 122.687082, , , 0.000000, , , 
27603, , 9.633824, -0.815365, -2.205214, 0.679219, 0.560771, 0.064677, -0.235103, -0.366129, -0.317260, -1.376465, 0.327393, -0.333984, 0.096365, -0.008332, -0.021866, 0.999996, -0.001176, -0.001831, -0.001586, -138.492628, -76.664831, 123.882722, , , 0.000000, , , 
27604, , 9.619462, -0.864681, -2.546989, 0.950692, 0.407241, 0.122049, -0.169798, -0.372267, -0.336723, -1.381104, 0.327393, -0.332031, 0.096227, -0.008830, -0.025283, 0.999996, -0.000849, -0.001861, -0.001684, -139.742130, -76.629383, 125.075027, , , 0.000000, , , 
27605, , 10.067005, -1.766097, -1.896846, -0.016262, -0.238952, 0.579813, -0.266793, -0.387881, -0.327133, -1.383057, 0.318604, -0.331787, 0.100677, -0.017851, -0.018749, 0.999996, -0.001334, -0.001939, -0.001636, -141.095135, -76.578729, 126.309193, , , 0.000000, , , 
27606, , 9.884616, -2.383595, -2.048231, -0.056249, -0.919771, 0.518482, -0.117796, -0.350058, -0.297373, -1.380615, 0.312012, -0.327393, 0.098846, -0.023995, -0.020295, 0.999997, -0.000589, -0.001750, -0.001487, -142.173186, -76.530340, 127.341138, , , 0.000000, , , 
27607, , 9.395587, -1.973574, -2.516217, 0.525711, -0.749860, 0.069851, 0.012305, -0.379695, -0.280368, -1.385254, 0.312012, -0.321045, 0.093976, -0.019866, -0.024985, 0.999997, 0.000062, -0.001898, -0.001402, -143.245724, -76.455973, 128.451951, , , 0.000000, , , 
27608, , 9.725916, -1.494937, -2.005280, 0.079699, -0.124609, 0.228597, 0.123048, -0.378784, -0.259101, -1.387451, 0.314209, -0.314697, 0.097277, -0.015063, -0.019878, 0.999997, 0.000615, -0.001894, -0.001296, -144.143344, -76.374714, 129.441759, , , 0.000000, , , 
27609, , 9.581225, -0.762432, -1.728806, -0.006457, 0.600845, -0.065444, 0.092428, -0.338221, -0.240972, -1.389648, 0.312012, -0.314697, 0.095832, -0.007732, -0.017130, 0.999998, 0.000462, -0.001691, -0.001205, -145.013885, -76.298511, 130.392776, , , 0.000000, , , 
27610, , 9.356985, -0.595279, -1.937321, 0.236826, 0.663778, -0.264707, 0.050728, -0.360148, -0.208877, -1.389648, 0.314209, -0.308350, 0.093598, -0.006046, -0.019206, 0.999998, 0.000254, -0.001801, -0.001044, -145.749908, -76.194118, 131.174484, , , 0.000000, , , 
27611, , 9.639071, -1.122114, -1.623274, -0.284031, 0.276054, 0.018325, -0.020451, -0.392291, -0.182460, -1.393799, 0.305420, -0.303955, 0.096412, -0.011311, -0.016042, 0.999998, -0.000102, -0.001961, -0.000912, -146.617810, -76.067414, 132.057038, , , 0.000000, , , 
27612, , 9.697069, -1.731981, -1.586352, -0.524418, -0.290733, 0.146718, 0.073071, -0.375733, -0.160530, -1.395996, 0.303223, -0.299805, 0.096986, -0.017392, -0.015688, 0.999998, 0.000365, -0.001879, -0.000803, -147.235697, -75.938045, 132.729502, , , 0.000000, , , 
27613, , 9.527715, -1.696405, -1.682783, -0.430122, -0.313931, -0.004362, 0.207628, -0.352394, -0.161709, -1.400635, 0.303223, -0.289307, 0.095293, -0.017024, -0.016678, 0.999998, 0.001038, -0.001762, -0.000809, -147.854828, -75.819406, 133.491275, , , 0.000000, , , 
27614, , 9.304702, -1.502049, -1.806645, -0.252505, -0.195318, -0.221253, 0.263989, -0.360948, -0.158025, -1.398193, 0.301025, -0.289062, 0.093068, -0.015070, -0.017918, 0.999997, 0.001320, -0.001805, -0.000790, -148.311243, -75.691927, 134.107743, , , 0.000000, , , 
27615, , 9.296722, -1.167823, -1.792598, -0.210598, 0.125707, -0.276126, 0.257645, -0.374358, -0.133176, -1.398193, 0.298828, -0.284912, 0.092993, -0.011717, -0.017767, 0.999997, 0.001288, -0.001872, -0.000666, -148.849743, -75.550800, 134.816747, , , 0.000000, , , 
27616, , 9.263482, -0.937801, -2.001634, 0.022884, 0.298974, -0.293859, 0.226467, -0.383548, -0.114256, -1.400391, 0.294434, -0.282715, 0.092668, -0.009408, -0.019849, 0.999997, 0.001132, -0.001918, -0.000571, -149.240014, -75.398183, 135.348406, , , 0.000000, , , 
27617, , 9.119151, -1.068163, -1.793631, -0.215988, 0.197066, -0.462210, 0.186866, -0.391969, -0.098307, -1.400391, 0.294434, -0.282715, 0.091221, -0.010710, -0.017768, 0.999998, 0.000934, -0.001960, -0.000492, -149.748202, -75.235537, 135.985135, , , 0.000000, , , 
27618, , 9.059636, -1.383798, -1.513305, -0.579258, -0.048493, -0.542088, 0.219102, -0.403531, -0.069698, -1.406982, 0.294434, -0.272217, 0.090622, -0.013853, -0.014965, 0.999997, 0.001096, -0.002018, -0.000348, -150.059639, -75.069494, 136.421768, , , 0.000000, , , 
27619, , 8.794121, -1.251130, -1.876511, -0.183011, -0.038576, -0.735898, 0.342749, -0.404618, -0.038409, -1.406982, 0.292236, -0.267822, 0.087977, -0.012496, -0.018609, 0.999996, 0.001714, -0.002023, -0.000192, -150.357420, -74.881750, 136.934172, , , 0.000000, , , 
27620, , 8.964523, -0.909197, -1.944735, -0.093612, 0.322714, -0.600832, 0.386662, -0.429411, -0.010260, -1.402588, 0.292236, -0.263672, 0.089686, -0.009059, -0.019272, 0.999996, 0.001933, -0.002147, -0.000051, -150.454659, -74.677863, 137.249883, , , 0.000000, , , 
27621, , 9.321820, -1.249962, -2.095930, -0.134818, 0.044466, -0.177784, 0.410004, -0.450094, 0.009965, -1.406982, 0.290039, -0.259277, 0.093266, -0.012452, -0.020775, 0.999995, 0.002050, -0.002250, 0.000050, -150.653886, -74.453125, 137.701030, , , 0.000000, , , 
27622, , 9.626336, -1.453952, -2.040027, -0.324529, -0.063835, 0.128768, 0.515491, -0.429954, 0.007866, -1.411377, 0.292236, -0.261475, 0.096308, -0.014483, -0.020231, 0.999994, 0.002577, -0.002150, 0.000039, -150.653574, -74.247904, 137.998870, , , 0.000000, , , 
27623, , 9.708316, -0.484825, -1.604507, -0.559853, 0.989084, -0.026520, 0.553537, -0.364829, 0.019792, -1.411377, 0.287842, -0.250732, 0.097113, -0.004795, -0.015881, 0.999995, 0.002768, -0.001824, 0.000099, -150.654502, -74.062927, 138.330294, , , 0.000000, , , 
27624, , 10.167610, 0.247502, -2.288566, 0.140511, 1.672079, 0.476304, 0.368493, -0.354398, 0.067735, -1.411377, 0.291992, -0.246826, 0.101716, 0.002551, -0.022701, 0.999997, 0.001842, -0.001772, 0.000339, -150.524812, -73.885935, 138.389793, , , 0.000000, , , 
27625, , 10.637622, 0.298131, -2.393922, 0.122141, 1.809183, 0.943267, 0.068962, -0.335131, 0.095938, -1.406982, 0.291992, -0.246826, 0.106415, 0.003041, -0.023760, 0.999998, 0.000345, -0.001676, 0.000480, -150.635905, -73.694662, 138.547442, , , 0.000000, , , 
27626, , 10.456412, -0.941676, -3.268866, 0.685003, 0.436587, 1.153113, -0.188353, -0.374245, 0.147310, -1.413574, 0.289795, -0.244629, 0.104632, -0.009370, -0.032484, 0.999998, -0.000942, -0.001871, 0.000737, -150.755942, -73.487883, 138.546954, , , 0.000000, , , 
27627, , 10.165651, -1.220431, -3.578294, 0.940476, 0.076359, 0.992108, -0.051577, -0.372633, 0.153729, -1.409180, 0.289795, -0.233887, 0.101732, -0.012135, -0.035590, 0.999998, -0.000258, -0.001863, 0.000769, -150.866513, -73.261655, 138.632325, , , 0.000000, , , 
27628, , 9.738266, -0.998363, -2.929715, 0.435112, 0.349195, 0.390369, -0.223103, -0.393633, 0.149372, -1.406982, 0.287598, -0.227539, 0.097447, -0.009943, -0.029094, 0.999997, -0.001116, -0.001968, 0.000747, -151.063149, -73.052208, 138.665591, , , 0.000000, , , 
27629, , 9.818150, -1.120418, -2.772298, 0.202942, 0.294578, 0.444454, -0.167445, -0.368970, 0.131207, -1.409180, 0.289795, -0.225586, 0.098240, -0.011163, -0.027532, 0.999998, -0.000837, -0.001845, 0.000656, -151.266099, -72.834178, 138.778408, , , 0.000000, , , 
27630, , 10.061595, 0.019490, -2.149021, -0.205748, 1.569193, 0.353412, -0.179129, -0.329490, 0.113834, -1.406982, 0.289795, -0.219238, 0.100651, 0.000233, -0.021325, 0.999998, -0.000896, -0.001647, 0.000569, -151.496060, -72.670513, 138.873363, , , 0.000000, , , 
27631, , 10.138538, 0.161706, -2.546844, 0.153702, 1.656285, 0.508916, -0.475532, -0.366166, 0.116010, -1.411377, 0.287598, -0.208496, 0.101431, 0.001616, -0.025287, 0.999995, -0.002378, -0.001831, 0.000580, -151.888296, -72.458052, 138.999878, , , 0.000000, , , 
27632, , 10.065928, -0.446424, -2.695986, 0.129728, 1.024735, 0.566305, -0.716915, -0.359905, 0.087277, -1.406982, 0.285400, -0.208496, 0.100710, -0.004516, -0.026763, 0.999992, -0.003585, -0.001800, 0.000436, -152.535410, -72.293906, 139.203292, , , 0.000000, , , 
27633, , 9.971621, -0.800931, -2.223791, -0.421976, 0.759142, 0.398358, -0.811201, -0.328461, 0.023830, -1.409180, 0.283203, -0.195801, 0.099753, -0.008087, -0.022041, 0.999990, -0.004056, -0.001642, 0.000119, -153.219603, -72.124328, 139.434786, , , 0.000000, , , 
27634, , 8.702467, -2.282094, -3.545204, 0.684923, -1.216459, -0.243985, -1.153176, -0.334327, 0.002984, -1.408936, 0.276611, -0.187256, 0.087084, -0.023023, -0.035174, 0.999982, -0.005766, -0.001672, 0.000015, -154.265115, -72.010570, 139.775294, , , 0.000000, , , 
27635, , 8.706267, -3.722890, -2.664041, -0.592246, -2.413658, -0.295381, -0.952341, -0.383306, -0.055095, -1.406738, 0.278809, -0.185059, 0.087103, -0.037379, -0.026296, 0.999987, -0.004762, -0.001917, -0.000275, -155.176644, -71.830147, 140.161384, , , 0.000000, , , 
27636, , 8.301894, -3.595695, -2.553018, -0.630057, -2.372202, -0.738342, -0.762908, -0.310940, -0.125478, -1.406982, 0.278809, -0.176758, 0.083036, -0.036106, -0.025264, 0.999991, -0.003815, -0.001555, -0.000627, -156.185647, -71.757253, 140.690493, , , 0.000000, , , 
27637, , 8.517555, -3.113979, -2.460161, -0.688145, -1.865031, -0.628688, -0.589664, -0.363011, -0.177905, -1.402344, 0.274414, -0.170410, 0.085192, -0.031288, -0.024355, 0.999994, -0.002948, -0.001815, -0.000890, -157.048631, -71.612042, 141.245024, , , 0.000000, , , 
27638, , 8.849456, -1.966353, -2.065005, -0.854490, -0.639840, -0.576678, -0.674709, -0.325290, -0.225492, -1.404541, 0.270264, -0.163818, 0.088506, -0.019833, -0.020439, 0.999992, -0.003374, -0.001626, -0.001127, -158.097204, -71.537076, 141.896137, , , 0.000000, , , 
27639, , 8.856903, -2.075976, -2.966360, -0.110898, -0.992327, -0.296579, -0.800983, -0.373774, -0.229969, -1.402344, 0.270264, -0.161865, 0.088600, -0.020980, -0.029414, 0.999990, -0.004005, -0.001869, -0.001150, -159.149676, -71.391391, 142.523673, , , 0.000000, , , 
27640, , 9.000894, -1.305476, -3.071986, 0.126572, -0.295622, -0.218225, -0.777057, -0.376514, -0.229014, -1.402344, 0.268066, -0.146973, 0.090051, -0.013277, -0.030499, 0.999990, -0.003885, -0.001883, -0.001145, -160.220086, -71.269939, 143.156645, , , 0.000000, , , 
27641, , 9.233304, -1.085584, -3.145073, 0.144255, -0.092638, 0.000268, -0.894998, -0.399535, -0.214686, -1.408936, 0.263428, -0.132080, 0.092384, -0.011095, -0.031217, 0.999987, -0.004475, -0.001998, -0.001073, -161.291326, -71.100401, 143.748229, , , 0.000000, , , 
27642, , 9.420957, -0.517820, -3.682523, 0.706735, 0.299163, 0.286530, -0.763878, -0.401115, -0.238579, -1.404297, 0.257080, -0.138184, 0.094277, -0.005431, -0.036616, 0.999990, -0.003819, -0.002006, -0.001193, -162.327563, -70.935108, 144.376276, , , 0.000000, , , 
27643, , 9.429068, -0.378067, -2.669301, -0.227299, 0.680104, -0.032050, -0.863584, -0.405368, -0.276509, -1.404297, 0.257080, -0.121338, 0.094339, -0.004026, -0.026485, 0.999988, -0.004318, -0.002027, -0.001383, -163.452379, -70.765841, 145.044833, , , 0.000000, , , 
27644, , 9.251527, -1.346146, -3.074343, -0.191708, -0.411853, 0.018264, -0.859347, -0.442004, -0.288225, -1.401855, 0.254883, -0.121338, 0.092563, -0.013726, -0.030480, 0.999987, -0.004297, -0.002210, -0.001441, -164.589129, -70.576035, 145.727609, , , 0.000000, , , 
27645, , 8.906588, -1.015357, -2.750338, -0.341945, -0.103544, -0.442812, -0.761250, -0.454470, -0.318757, -1.404053, 0.248291, -0.110596, 0.089112, -0.010400, -0.027262, 0.999989, -0.003806, -0.002272, -0.001594, -165.709372, -70.377293, 146.455066, , , 0.000000, , , 
27646, , 8.891223, -1.743630, -2.962962, -0.464086, -0.882890, -0.332298, -0.869121, -0.517335, -0.348677, -1.406250, 0.246094, -0.104248, 0.088958, -0.017719, -0.029323, 0.999986, -0.004346, -0.002587, -0.001743, -166.924352, -70.142630, 147.220866, , , 0.000000, , , 
27647, , 9.111404, -2.047061, -3.056243, -0.625183, -1.186445, -0.078742, -0.689330, -0.521247, -0.366526, -1.401855, 0.246094, -0.089355, 0.091155, -0.020742, -0.030254, 0.999989, -0.003447, -0.002606, -0.001833, -168.059908, -69.902695, 148.010534, , , 0.000000, , , 
27648, , 9.337205, -1.692337, -3.062234, -0.634075, -0.845195, 0.102338, -0.599965, -0.529843, -0.382612, -1.406006, 0.232910, -0.082764, 0.093420, -0.017193, -0.030324, 0.999990, -0.003000, -0.002649, -0.001913, -169.115397, -69.653870, 148.775406, , , 0.000000, , , 
27649, , 9.420239, -0.934341, -3.816306, 0.207894, -0.392313, 0.384394, -0.404738, -0.526049, -0.393802, -1.403809, 0.232910, -0.074463, 0.094284, -0.009606, -0.037896, 0.999993, -0.002024, -0.002630, -0.001969, -170.086801, -69.404284, 149.566419, , , 0.000000, , , 
27650, , 9.279590, -0.409553, -3.195112, -0.176456, 0.242102, 0.005513, -0.391095, -0.541335, -0.416236, -1.401611, 0.230713, -0.065918, 0.092873, -0.004351, -0.031691, 0.999992, -0.001955, -0.002707, -0.002081, -171.027501, -69.142607, 150.339827, , , 0.000000, , , 
27651, , 9.182529, -0.997185, -3.246247, -0.384803, -0.366567, -0.036779, -0.364639, -0.586310, -0.439932, -1.403564, 0.219727, -0.055176, 0.091898, -0.010233, -0.032175, 0.999992, -0.001823, -0.002932, -0.002200, -172.014646, -68.853638, 151.175089, , , 0.000000, , , 
27652, , 8.998454, -1.503427, -3.119464, -0.694465, -0.853662, -0.233963, -0.249215, -0.627187, -0.483184, -1.398926, 0.213379, -0.046631, 0.090045, -0.015290, -0.030893, 0.999991, -0.001246, -0.003136, -0.002416, -172.943630, -68.540189, 152.026513, , , 0.000000, , , 
27653, , 8.801061, -1.712987, -3.359739, -0.572151, -1.187284, -0.328844, -0.130787, -0.666704, -0.543506, -1.394531, 0.208984, -0.029541, 0.088075, -0.017391, -0.033293, 0.999991, -0.000654, -0.003334, -0.002718, -173.909327, -68.202456, 152.986411, , , 0.000000, , , 
27654, , 8.888365, -0.814369, -3.433035, -0.284068, -0.384446, -0.261619, 0.050546, -0.668452, -0.605983, -1.394287, 0.204590, -0.018799, 0.088973, -0.008405, -0.034035, 0.999990, 0.000253, -0.003342, -0.003030, -174.781859, -67.862996, 153.968095, , , 0.000000, , , 
27655, , 8.664302, -0.090119, -3.182620, -0.244030, 0.304431, -0.590193, -0.146989, -0.739673, -0.648915, -1.391846, 0.195801, -0.012451, 0.086756, -0.001206, -0.031505, 0.999988, -0.000735, -0.003698, -0.003245, -175.853170, -67.477029, 155.036884, , , 0.000000, , , 
27656, , 9.010103, -0.218824, -3.634624, -0.108701, 0.060059, -0.095488, -0.322335, -0.796938, -0.680168, -1.398438, 0.191406, -0.001709, 0.090237, -0.002553, -0.035983, 0.999985, -0.001612, -0.003985, -0.003401, -176.989044, -67.054591, 156.077875, , , 0.000000, , , 
27657, , 9.774250, 0.030686, -3.179322, -0.785417, 0.518657, 0.422447, -0.364229, -0.819594, -0.699826, -1.389404, 0.185059, 0.015381, 0.097872, -0.000093, -0.031392, 0.999984, -0.001821, -0.004098, -0.003499, -178.181243, -66.608336, 157.149348, , , 0.000000, , , 
27658, , 10.179946, -0.082925, -2.843824, -1.371730, 0.538635, 0.654039, -0.490040, -0.861848, -0.752935, -1.389160, 0.171875, 0.030273, 0.101916, -0.001282, -0.027996, 0.999981, -0.002450, -0.004309, -0.003765, -179.432699, -66.135225, 158.218027, , , 0.000000, , , 
27659, , 10.200268, -0.469619, -3.280891, -1.267480, -0.018574, 0.837278, -0.470332, -0.901012, -0.829914, -1.382324, 0.161133, 0.041260, 0.102128, -0.005196, -0.032337, 0.999978, -0.002352, -0.004505, -0.004150, 179.236180, -65.624134, 159.382918, , , 0.000000, , , 
27660, , 9.953869, -0.378134, -3.082779, -1.432030, 0.038301, 0.515529, -0.446628, -0.969646, -0.921061, -1.377686, 0.150146, 0.058350, 0.099668, -0.004308, -0.030336, 0.999975, -0.002233, -0.004848, -0.004605, 177.896595, -65.072846, 160.584529, , , 0.000000, , , 
27661, , 9.852126, -0.517027, -3.177392, -1.498138, -0.201613, 0.441111, -0.427508, -1.053770, -1.016643, -1.381836, 0.139160, 0.075439, 0.098659, -0.005739, -0.031242, 0.999971, -0.002138, -0.005269, -0.005083, 176.478291, -64.447106, 161.883430, , , 0.000000, , , 
27662, , 9.919790, -0.420604, -3.150152, -1.657282, -0.160567, 0.469713, -0.347245, -1.161145, -1.125190, -1.363770, 0.124023, 0.090576, 0.099353, -0.004819, -0.030917, 0.999966, -0.001736, -0.005806, -0.005626, 175.090667, -63.758940, 163.214771, , , 0.000000, , , 
27663, , 10.301442, -0.837662, -2.870355, -2.363518, -0.481193, 0.639081, -0.386353, -1.251537, -1.231242, -1.363281, 0.104492, 0.116211, 0.103137, -0.009066, -0.028041, 0.999960, -0.001932, -0.006258, -0.006156, 173.607581, -62.981658, 164.627915, , , 0.000000, , , 
27664, , 10.092153, -1.645143, -3.288477, -2.387533, -1.487510, 0.553381, -0.426470, -1.347450, -1.404653, -1.352051, 0.093506, 0.133301, 0.101021, -0.017230, -0.032168, 0.999950, -0.002132, -0.006737, -0.007023, 172.046434, -62.144786, 166.122908, , , 0.000000, , , 
27665, , 10.985865, -1.756755, -3.391548, -2.947452, -1.626412, 1.320149, -0.187856, -1.562042, -1.574702, -1.340576, 0.078369, 0.156982, 0.109976, -0.018464, -0.033040, 0.999938, -0.000939, -0.007810, -0.007873, 170.535098, -61.129133, 167.719796, , , 0.000000, , , 
27666, , 12.418231, -0.566137, -3.416467, -3.411741, -0.491768, 2.609720, -0.135666, -1.557443, -1.708233, -1.326660, 0.050293, 0.182861, 0.124389, -0.006746, -0.033192, 0.999933, -0.000678, -0.007787, -0.008541, 169.071140, -60.115314, 169.326019, , , 0.000000, , , 
27667, , 13.373548, 0.406387, -2.242876, -4.754328, 0.774905, 2.869354, -0.323730, -1.733839, -1.694188, -1.308594, 0.032959, 0.210693, 0.133951, 0.002895, -0.021273, 0.999925, -0.001619, -0.008669, -0.008471, 167.607993, -58.951720, 170.810066, , , 0.000000, , , 
27668, , 13.188325, 2.533385, -4.229034, -2.658008, 1.919337, 3.879476, -0.807684, -1.786266, -1.683615, -1.294922, 0.013428, 0.242676, 0.132461, 0.024053, -0.041208, 0.999917, -0.004038, -0.008931, -0.008418, 166.037780, -57.787110, 172.126688, , , 0.000000, , , 
27669, , 12.548336, 3.684053, -2.613131, -3.509129, 3.364306, 2.605798, -1.011494, -2.028513, -1.747778, -1.267822, -0.008301, 0.270508, 0.126056, 0.035612, -0.025037, 0.999898, -0.005057, -0.010142, -0.008739, 164.416589, -56.413322, 173.369031, , , 0.000000, , , 
27670, , 15.431863, 1.665135, -0.923391, -7.382183, 2.130923, 3.704539, -1.571098, -2.173100, -1.743115, -1.242676, -0.034180, 0.306885, 0.154545, 0.015241, -0.007679, 0.999872, -0.007855, -0.010865, -0.008715, 162.644904, -54.997894, 174.433270, , , 0.000000, , , 
27671, , 14.447673, -1.480433, -1.906083, -7.496594, -1.349323, 2.698258, -1.574781, -2.181753, -1.824288, -1.217773, -0.062500, 0.339355, 0.144528, -0.016264, -0.017360, 0.999868, -0.007874, -0.010908, -0.009121, 160.903841, -53.488889, 175.468645, , , 0.000000, , , 
27672, , 17.256556, -0.884080, -1.044921, -9.960127, -0.482464, 4.336553, -1.278699, -2.350590, -1.908113, -1.181885, -0.075195, 0.362793, 0.172577, -0.010545, -0.008357, 0.999865, -0.006393, -0.011752, -0.009540, 159.431275, -51.935736, 176.407530, , , 0.000000, , , 
27673, , 17.772855, -2.416002, 0.237900, -12.122819, -1.497686, 3.322514, -1.442230, -2.467178, -1.948914, -1.145752, -0.096680, 0.403320, 0.177433, -0.025861, 0.004751, 0.999850, -0.007211, -0.012335, -0.009744, 157.950007, -50.218090, 177.251194, , , 0.000000, , , 
27674, , 18.806664, -2.263950, 1.177526, -13.775715, -1.048169, 3.198885, -1.546371, -2.608313, -1.861985, -1.101074, -0.114014, 0.435303, 0.187669, -0.024283, 0.014408, 0.999842, -0.007731, -0.013041, -0.009309, 156.603208, -48.545175, 177.870541, , , 0.000000, , , 
27675, , 19.655157, -2.692674, 2.881564, -16.036122, -0.760668, 2.191711, -2.022887, -2.664919, -1.917194, -1.051514, -0.137451, 0.467529, 0.195874, -0.028496, 0.031712, 0.999814, -0.010114, -0.013324, -0.009585, 155.028787, -46.707256, 178.434747, , , 0.000000, , , 
27676, , 18.999840, -5.004607, 0.989001, -15.519891, -3.704252, 1.693057, -2.781468, -2.760391, -1.923536, -1.006592, -0.163330, 0.503906, 0.189339, -0.051701, 0.013218, 0.999762, -0.013906, -0.013801, -0.009617, 153.140877, -44.963697, 178.860615, , , 0.000000, , , 
27677, , 16.750961, -10.160246, -2.451746, -14.094528, -9.816733, -0.080479, -4.338805, -3.413016, -1.500876, -0.950684, -0.182617, 0.540039, 0.167099, -0.103316, -0.019434, 0.999591, -0.021691, -0.017063, -0.007503, 150.806077, -42.838321, 178.644548, , , 0.000000, , , 
27678, , 12.614586, -6.961171, -17.437897, -1.954472, -14.650532, 7.308242, -2.021056, -3.640496, -2.098101, -0.892578, -0.193115, 0.586914, 0.128531, -0.072694, -0.171329, 0.999728, -0.010104, -0.018201, -0.010490, 149.684360, -40.629831, 178.634208, , , 0.000000, , , 
27679, , 19.382848, 3.512626, -10.607679, -8.113262, -2.207897, 10.918221, -0.413673, -3.589211, -2.769692, -0.832275, -0.205811, 0.616699, 0.196151, 0.032206, -0.102639, 0.999741, -0.002068, -0.017945, -0.013847, 149.182543, -38.056684, 179.054248, , , 0.000000, , , 
27680, , 25.457835, -5.963753, -6.331642, -19.101803, -8.118221, 7.298988, -3.238432, -3.559548, -2.596030, -0.776367, -0.222656, 0.648682, 0.254828, -0.063910, -0.057770, 0.999626, -0.016190, -0.017796, -0.012979, 147.254403, -35.743291, 179.258777, , , 0.000000, , , 
27681, , 23.050738, -10.186212, -3.653220, -20.445166, -10.360126, 1.279648, -0.617620, -2.442950, -2.487960, -0.723145, -0.224609, 0.671875, 0.229636, -0.104829, -0.033403, 0.999843, -0.003088, -0.012214, -0.012439, 146.599966, -33.796875, 179.788510, , , 0.000000, , , 
27682, , 17.727959, -3.358347, -0.978138, -15.401292, -3.339135, -0.972925, 0.523138, -2.183336, -2.270349, -0.681396, -0.202637, 0.700928, 0.176977, -0.035571, -0.007940, 0.999873, 0.002616, -0.010916, -0.011351, 146.734144, -32.290929, -179.775472, , , 0.000000, , , 
27683, , 13.560464, 1.605581, -8.277974, -7.454550, -3.232015, 3.933582, 0.997497, -1.948338, -2.031896, -0.635010, -0.189209, 0.730225, 0.136558, 0.015080, -0.081376, 0.999889, 0.004987, -0.009741, -0.010159, 147.080335, -30.724518, -179.341153, , , 0.000000, , , 
27684, , 12.922285, 5.593334, -4.153588, -7.890087, 2.331769, 2.345540, 0.165368, -1.604916, -1.725225, -0.599609, -0.184570, 0.738770, 0.130027, 0.054848, -0.040449, 0.999930, 0.000827, -0.008024, -0.008626, 147.076429, -29.691088, -178.994626, , , 0.000000, , , 
27685, , 11.769312, -2.185798, -2.805665, -9.649563, -3.564270, -3.079020, -2.198034, -1.075129, -1.158284, -0.566162, -0.190918, 0.753662, 0.117710, -0.022842, -0.027176, 0.999908, -0.010990, -0.005375, -0.005791, 145.697599, -28.815203, -178.746863, , , 0.000000, , , 
27686, , 8.829165, -5.671470, -1.230819, -8.665042, -5.574386, -7.472430, -0.803718, -0.411923, -0.712319, -0.546387, -0.175537, 0.763916, 0.088114, -0.057077, -0.011898, 0.999983, -0.004019, -0.002060, -0.003562, 145.211905, -28.676395, -178.545124, , , 0.000000, , , 
27687, , 8.362281, -1.140049, 0.925915, -8.002680, -0.627280, -7.047132, 0.170315, 0.009143, -0.421100, -0.529053, -0.160156, 0.767822, 0.083599, -0.011584, 0.009246, 0.999997, 0.000852, 0.000046, -0.002106, 145.198953, -28.547473, -178.310799, , , 0.000000, , , 
27688, , 7.586150, 0.674211, 1.140550, -6.940006, 0.981976, -6.622567, 0.137834, 0.678417, -0.216536, -0.524902, -0.140625, 0.773682, 0.075907, 0.006652, 0.011153, 0.999993, 0.000689, 0.003392, -0.001083, 145.187499, -29.092192, -177.970685, , , 0.000000, , , 
27689, , 5.448772, 0.142295, 0.726205, -5.015499, 0.332632, -7.583255, 0.057774, 1.407111, 0.029273, -0.522949, -0.132080, 0.771484, 0.054537, 0.001429, 0.006879, 0.999975, 0.000289, 0.007035, 0.000146, 144.967087, -29.767344, -177.451284, , , 0.000000, , , 
27690, , 3.225784, -0.802741, 0.275851, -3.098487, -0.650131, -8.762681, 0.170769, 1.953481, 0.388843, -0.525635, -0.110107, 0.762451, 0.032298, -0.007967, 0.002436, 0.999950, 0.000854, 0.009767, 0.001944, 144.869875, -31.109727, -176.942007, , , 0.000000, , , 
27691, , 2.293040, -1.184213, -0.136553, -2.184720, -1.175276, -9.088516, 0.549925, 2.369941, 0.765822, -0.537109, -0.093018, 0.764404, 0.022957, -0.011750, -0.001670, 0.999919, 0.002750, 0.011849, 0.003829, 144.922313, -32.477516, -176.440227, , , 0.000000, , , 
27692, , 2.492877, -0.451859, -0.454285, -1.967669, -0.760737, -8.338233, 0.904932, 2.736080, 1.123101, -0.546631, -0.069092, 0.753174, 0.024888, -0.004357, -0.004903, 0.999880, 0.004524, 0.013680, 0.005615, 145.267528, -34.422587, -176.023441, , , 0.000000, , , 
27693, , 3.358042, -0.182986, -0.755319, -2.388792, -0.755042, -7.445666, 0.985412, 3.095136, 1.449679, -0.564697, -0.047363, 0.746582, 0.033470, -0.001548, -0.008080, 0.999842, 0.004927, 0.015475, 0.007248, 145.601817, -36.358845, -175.622710, , , 0.000000, , , 
27694, , 3.780844, -1.253501, -1.525113, -2.488828, -2.096094, -7.055574, 1.216870, 3.480509, 1.734245, -0.589844, -0.019287, 0.731201, 0.037641, -0.012112, -0.015982, 0.999792, 0.006084, 0.017401, 0.008671, 146.138257, -38.850053, -175.276672, , , 0.000000, , , 
27695, , 3.993034, -1.531771, -2.014858, -2.304135, -2.595413, -6.603144, 1.655876, 3.844469, 1.997268, -0.608398, 0.015381, 0.713623, 0.039681, -0.014749, -0.021037, 0.999731, 0.008279, 0.019221, 0.009985, 146.865085, -41.323289, -174.929141, , , 0.000000, , , 
27696, , 3.938228, -1.094634, -2.253360, -1.789914, -2.306568, -6.171715, 2.009933, 4.162140, 2.235175, -0.635986, 0.054199, 0.695801, 0.039018, -0.010276, -0.023454, 0.999671, 0.010049, 0.020808, 0.011175, 147.897353, -44.298276, -174.683087, , , 0.000000, , , 
27697, , 3.932177, -0.741848, -2.872350, -1.062269, -2.244807, -5.559555, 2.183105, 4.387075, 2.451606, -0.661133, 0.091064, 0.676270, 0.038762, -0.006621, -0.029653, 0.999625, 0.010914, 0.021933, 0.012256, 149.025101, -47.180322, -174.508401, , , 0.000000, , , 
27698, , 4.541763, -0.394480, -3.509275, -0.640171, -2.178157, -4.527355, 2.364139, 4.595989, 2.660008, -0.686279, 0.125732, 0.645996, 0.044638, -0.002924, -0.036163, 0.999578, 0.011819, 0.022977, 0.013298, 150.449738, -50.489678, -174.540915, , , 0.000000, , , 
27699, , 5.631037, 0.190961, -3.626924, -0.727786, -1.653820, -3.361247, 2.460362, 4.776824, 2.878936, -0.707275, 0.166992, 0.613525, 0.055384, 0.003168, -0.037566, 0.999536, 0.012300, 0.023880, 0.014392, 152.022043, -53.687866, -174.744173, , , 0.000000, , , 
27700, , 6.901507, 0.336507, -3.845937, -0.814858, -1.521238, -2.096705, 2.457683, 4.984384, 3.100455, -0.730469, 0.212646, 0.576660, 0.067961, 0.004910, -0.040108, 0.999494, 0.012286, 0.024918, 0.015500, 153.947888, -57.294581, -175.319386, , , 0.000000, , , 
27701, , 8.139127, 0.682230, -3.586305, -1.083095, -0.982200, -1.014564, 2.326917, 5.163487, 3.314633, -0.749023, 0.249512, 0.540039, 0.080298, 0.008592, -0.037853, 0.999462, 0.011632, 0.025813, 0.016570, 156.062998, -60.784072, -176.228104, , , 0.000000, , , 
27702, , 9.432821, 0.579455, -3.909942, -0.846802, -1.011417, 0.327461, 2.061841, 5.334838, 3.550923, -0.772217, 0.295166, 0.492676, 0.093115, 0.007875, -0.041520, 0.999434, 0.010307, 0.026669, 0.017751, 158.754242, -64.631877, -177.879692, , , 0.000000, , , 
27703, , 10.579319, 0.521853, -4.441382, -0.209611, -1.007565, 1.624489, 1.913818, 5.462119, 3.765863, -0.784180, 0.336426, 0.464355, 0.104400, 0.007636, -0.047213, 0.999404, 0.009567, 0.027305, 0.018826, 162.108776, -68.310118, 179.661374, , , 0.000000, , , 
27704, , 11.859184, 0.354965, -4.865438, 0.486123, -0.977265, 2.961473, 1.728963, 5.575558, 3.968674, -0.791748, 0.375488, 0.412842, 0.117068, 0.006322, -0.051886, 0.999377, 0.008643, 0.027872, 0.019839, 167.106274, -72.222779, 175.449747, , , 0.000000, , , 
27705, , 12.997026, -0.034699, -5.330886, 1.343756, -1.108323, 4.123673, 1.673452, 5.679289, 4.154710, -0.796875, 0.414795, 0.371826, 0.128351, 0.002797, -0.056955, 0.999346, 0.008365, 0.028390, 0.020769, 174.453453, -75.828532, 168.811033, , , 0.000000, , , 
27706, , 14.036195, 0.067006, -5.540316, 2.356042, -0.598096, 5.076967, 1.723446, 5.777966, 4.291041, -0.797852, 0.454102, 0.320312, 0.138620, 0.004158, -0.059399, 0.999315, 0.008615, 0.028883, 0.021450, -172.491692, -79.301284, 156.501918, , , 0.000000, , , 
27707, , 15.090657, 0.670377, -6.213690, 4.037984, 0.329657, 6.006568, 1.721909, 5.821521, 4.377097, -0.791992, 0.497803, 0.262451, 0.148812, 0.010536, -0.066410, 0.999300, 0.008608, 0.029101, 0.021880, -150.850315, -81.725537, 135.574009, , , 0.000000, , , 
27708, , 16.228419, 1.522139, -7.163653, 6.233078, 1.535857, 6.789627, 1.726187, 5.867745, 4.390096, -0.790527, 0.534912, 0.219482, 0.159698, 0.019391, -0.076193, 0.999292, 0.008629, 0.029332, 0.021945, -118.185280, -82.349700, 103.643749, , , 0.000000, , , 
27709, , 17.158209, 2.519762, -8.467555, 8.865384, 2.815079, 7.091738, 1.718299, 5.863008, 4.330369, -0.775879, 0.576416, 0.165771, 0.168398, 0.029622, -0.089402, 0.999299, 0.008589, 0.029308, 0.021647, -90.837826, -80.749229, 77.006638, , , 0.000000, , , 
27710, , 18.161771, 3.975235, -9.751090, 11.674228, 4.610618, 7.009783, 1.675333, 5.771918, 4.174160, -0.758545, 0.609375, 0.116455, 0.177817, 0.044334, -0.102321, 0.999331, 0.008375, 0.028853, 0.020866, -73.506436, -77.776091, 60.386932, , , 0.000000, , , 
27711, , 18.754106, 5.734302, -11.030177, 14.417517, 6.601230, 6.144082, 1.554098, 5.605289, 3.896945, -0.743652, 0.637695, 0.073730, 0.183186, 0.061823, -0.115008, 0.999387, 0.007769, 0.028021, 0.019481, -63.747537, -74.514511, 51.259909, , , 0.000000, , , 
27712, , 18.565231, 7.627963, -12.739250, 17.348930, 8.409107, 4.088768, 1.325780, 5.255362, 3.514715, -0.724365, 0.668457, 0.026611, 0.180841, 0.080350, -0.131663, 0.999478, 0.006628, 0.026272, 0.017571, -57.450144, -71.149734, 45.494737, , , 0.000000, , , 
27713, , 16.540656, 8.265231, -14.168350, 19.057262, 8.510068, 0.526448, 0.858333, 4.821683, 3.106752, -0.713379, 0.686035, -0.001221, 0.160617, 0.085791, -0.145231, 0.999580, 0.004291, 0.024105, 0.015532, -53.523517, -68.112902, 41.834520, , , 0.000000, , , 
27714, , 13.688131, 7.082975, -15.010587, 19.333054, 6.631199, -3.103396, 0.328866, 4.189283, 2.748010, -0.689209, 0.701660, -0.033203, 0.132707, 0.072922, -0.152796, 0.999685, 0.001644, 0.020944, 0.013739, -51.059217, -65.309216, 39.378185, , , 0.000000, , , 
27715, , 12.224115, 6.117440, -15.995567, 19.899495, 5.145729, -5.320727, 0.259047, 3.457438, 2.408157, -0.669678, 0.721436, -0.054688, 0.118703, 0.062827, -0.161948, 0.999777, 0.001295, 0.017286, 0.012040, -49.569022, -62.978329, 37.889736, , , 0.000000, , , 
27716, , 11.174911, 6.873296, -17.162897, 20.833642, 5.296171, -7.679769, 0.461962, 2.821273, 1.995246, -0.663330, 0.732422, -0.071777, 0.108619, 0.070226, -0.173015, 0.999848, 0.002310, 0.014106, 0.009976, -48.382791, -61.007229, 36.857008, , , 0.000000, , , 
27717, , 8.372665, 8.363241, -17.315484, 20.085966, 5.830863, -11.362570, 0.379404, 2.108428, 1.429621, -0.647949, 0.741211, -0.091064, 0.081294, 0.084549, -0.173861, 0.999917, 0.001897, 0.010542, 0.007148, -47.542175, -59.585783, 36.141894, , , 0.000000, , , 
27718, , 5.531402, 9.389507, -17.182943, 18.869698, 5.945949, -14.565129, 0.229597, 1.196441, 0.789851, -0.643311, 0.741211, -0.097412, 0.053913, 0.094307, -0.172047, 0.999974, 0.001148, 0.005982, 0.003949, -47.077441, -58.782760, 35.753517, , , 0.000000, , , 
27719, , 3.767492, 10.265027, -16.756975, 17.802579, 6.305057, -16.421412, -0.041816, 0.191962, 0.116179, -0.645752, 0.747803, -0.091309, 0.037454, 0.102637, -0.167627, 0.999999, -0.000209, 0.000960, 0.000581, -47.032355, -58.654875, 35.675096, , , 0.000000, , , 
27720, , 3.420287, 10.625250, -16.412210, 17.436538, 6.579278, -16.641347, -0.621313, -0.859586, -0.537218, -0.645752, 0.741211, -0.080566, 0.035193, 0.105649, -0.164301, 0.999982, -0.003107, -0.004298, -0.002686, -47.662632, -59.246399, 35.986141, , , 0.000000, , , 
27721, , 5.320692, 9.530283, -16.180954, 18.002965, 6.131349, -14.199196, -1.025205, -1.838098, -1.102462, -0.661133, 0.734619, -0.059326, 0.055215, 0.094173, -0.161793, 0.999929, -0.005126, -0.009190, -0.005512, -48.866942, -60.414758, 36.701981, , , 0.000000, , , 
27722, , 12.055989, 3.187982, -6.209574, 10.748537, 4.767258, -2.342986, -2.486458, -2.353309, -1.324805, -0.667725, 0.732178, -0.016846, 0.121487, 0.030314, -0.061053, 0.999832, -0.012432, -0.011766, -0.006624, -51.329605, -61.927062, 37.870332, , , 0.000000, , , 
27723, , 19.332566, -10.684125, 7.973921, -2.262376, -1.760520, 13.493587, -5.078458, -1.974317, -0.672264, -0.669922, 0.725342, 0.033936, 0.192152, -0.105386, 0.084329, 0.999623, -0.025389, -0.009870, -0.003361, -55.525608, -62.906835, 39.323616, , , 0.000000, , , 
27724, , 12.061293, -23.634885, 5.229528, -6.121859, -15.846048, 11.227228, -5.276419, -1.538188, 0.074830, -0.669922, 0.718750, 0.063721, 0.120262, -0.234799, 0.059430, 0.999622, -0.026379, -0.007690, 0.000374, -60.124682, -63.409464, 41.071498, , , 0.000000, , , 
27725, , 12.565016, -6.762694, 4.648142, -1.739641, -0.757618, 5.073919, 2.690655, -1.035986, -1.134081, -0.680908, 0.720947, 0.040283, 0.125022, -0.068960, 0.046208, 0.999880, 0.013453, -0.005180, -0.005670, -58.938934, -64.267610, 41.470250, , , 0.000000, , , 
27726, , 13.004053, 15.962535, 8.161856, 0.253685, 20.714982, -1.982883, 2.396111, -1.279491, -1.791219, -0.696289, 0.705566, 0.053223, 0.130923, 0.157456, 0.084349, 0.999868, 0.011980, -0.006397, -0.008956, -57.827631, -65.575594, 41.738450, , , 0.000000, , , 
27727, , 16.464323, 2.531875, -2.010138, 7.284519, 6.158176, 3.990017, -3.292306, -3.042649, -1.438054, -0.691650, 0.692383, 0.100098, 0.165103, 0.023825, -0.017992, 0.999723, -0.016460, -0.015212, -0.007190, -62.207908, -67.158024, 44.462328, , , 0.000000, , , 
27728, , 14.643257, -11.316010, -28.728735, 27.559943, -15.732866, 2.862350, -0.794279, -3.126965, -1.171389, -0.702637, 0.690186, 0.112793, 0.150225, -0.115166, -0.284504, 0.999853, -0.003971, -0.015634, -0.005857, -65.967714, -68.613278, 48.015661, , , 0.000000, , , 
27729, , 26.681721, 4.432747, -6.863802, 13.657146, 9.087686, 12.759179, 2.919800, -3.037154, -1.424483, -0.702393, 0.679199, 0.117188, 0.268123, 0.043377, -0.063935, 0.999753, 0.014598, -0.015185, -0.007122, -67.664231, -70.047245, 51.618765, , , 0.000000, , , 
27730, , 20.007041, 5.284422, -0.757007, 5.977710, 9.933277, 7.344114, -0.831656, -2.381552, -1.179864, -0.708984, 0.674805, 0.138428, 0.200450, 0.051637, -0.005401, 0.999903, -0.004158, -0.011907, -0.005899, -71.293831, -71.238367, 54.931189, , , 0.000000, , , 
27731, , 10.219055, -0.266402, -2.675638, 4.256292, 1.637452, -0.280787, 0.465880, -1.983156, -1.247053, -0.708740, 0.666016, 0.149170, 0.102430, -0.003241, -0.025749, 0.999929, 0.002329, -0.009916, -0.006235, -73.637699, -72.260984, 57.682195, , , 0.000000, , , 
27732, , 6.725204, -0.868340, -1.623127, 2.349956, 0.456481, -3.264049, 0.493294, -1.911473, -0.946068, -0.710938, 0.659668, 0.155762, 0.067361, -0.008963, -0.015610, 0.999940, 0.002466, -0.009557, -0.004730, -76.542755, -73.149622, 60.991778, , , 0.000000, , , 
27733, , 5.741464, -3.264420, -3.914557, 3.704183, -2.652248, -3.633024, 0.194325, -1.728746, -0.754802, -0.719971, 0.661621, 0.166260, 0.057627, -0.032824, -0.038680, 0.999955, 0.000972, -0.008644, -0.003774, -79.365720, -73.778875, 64.054607, , , 0.000000, , , 
27734, , 6.644504, -2.422227, -4.715982, 4.698202, -1.848128, -2.974000, 0.698067, -1.449003, -0.590739, -0.717529, 0.652832, 0.170654, 0.066713, -0.024255, -0.046762, 0.999963, 0.003490, -0.007245, -0.002954, -81.934338, -74.319750, 67.111401, , , 0.000000, , , 
27735, , 9.179424, 1.908570, -3.012067, 4.272715, 3.285337, -1.570962, 0.238180, -1.235409, -0.461280, -0.717285, 0.646484, 0.181396, 0.092022, 0.018909, -0.029530, 0.999978, 0.001191, -0.006177, -0.002306, -84.189173, -74.667710, 69.595002, , , 0.000000, , , 
27736, , 11.236877, 1.370031, -2.883513, 4.073403, 3.312865, 0.622350, -0.958493, -1.070328, -0.290839, -0.717285, 0.642090, 0.196289, 0.112541, 0.013400, -0.028298, 0.999973, -0.004792, -0.005352, -0.001454, -87.289510, -74.944653, 72.206077, , , 0.000000, , , 
27737, , 11.695231, 1.232292, -1.440927, 2.582094, 3.659927, 1.155915, -1.322758, -0.853572, -0.164976, -0.710449, 0.639893, 0.208984, 0.117023, 0.012133, -0.013991, 0.999969, -0.006614, -0.004268, -0.000825, -89.836020, -75.052121, 74.059780, , , 0.000000, , , 
27738, , 11.298275, 0.027189, -0.642729, 1.358938, 2.646970, 1.105691, -2.067835, -0.785772, -0.109658, -0.717285, 0.637451, 0.228027, 0.113007, 0.000147, -0.005985, 0.999939, -0.010339, -0.003929, -0.000548, -93.088386, -75.166872, 76.166149, , , 0.000000, , , 
27739, , 10.446279, -3.564511, -0.777715, 0.297904, -0.910767, 1.210700, -2.120563, -0.749583, -0.062964, -0.712646, 0.633301, 0.247070, 0.104479, -0.035755, -0.007007, 0.999937, -0.010603, -0.003748, -0.000315, -95.904290, -75.170580, 77.824184, , , 0.000000, , , 
27740, , 10.942341, -5.199794, -1.223789, 0.089313, -2.414323, 2.121801, -1.013745, -0.673174, -0.164682, -0.710205, 0.624512, 0.255615, 0.109420, -0.052148, -0.011606, 0.999981, -0.005069, -0.003366, -0.000823, -98.355297, -75.273306, 79.725372, , , 0.000000, , , 
27741, , 10.025065, -3.184230, 0.303515, -0.868923, -0.316091, 0.669582, -0.153037, -0.628129, -0.287041, -0.717041, 0.624512, 0.261963, 0.100195, -0.031984, 0.003374, 0.999994, -0.000765, -0.003141, -0.001435, -99.873304, -75.380653, 81.205850, , , 0.000000, , , 
27742, , 9.760756, -3.252756, -0.478118, -0.256939, -0.704774, 0.459510, -0.207096, -0.730518, -0.341965, -0.712646, 0.624512, 0.261963, 0.097568, -0.032699, -0.004391, 0.999991, -0.001035, -0.003653, -0.001710, -102.096778, -75.540090, 83.348035, , , 0.000000, , , 
27743, , 9.131659, -3.248234, -2.126632, 1.210141, -1.386707, -0.062153, 0.002656, -0.723054, -0.400899, -0.719238, 0.624268, 0.264160, 0.091327, -0.032665, -0.020937, 0.999991, 0.000013, -0.003615, -0.002004, -103.843276, -75.673369, 85.154609, , , 0.000000, , , 
27744, , 9.155542, -2.326250, -2.160443, 1.443239, -0.566311, -0.247192, -0.251955, -0.680519, -0.424663, -0.712402, 0.613525, 0.274902, 0.091578, -0.023484, -0.021263, 0.999991, -0.001260, -0.003403, -0.002123, -106.103309, -75.844817, 87.305540, , , 0.000000, , , 
27745, , 9.063635, -1.539682, -2.113442, 1.572170, 0.125821, -0.512225, -0.578422, -0.631663, -0.431526, -0.716553, 0.609131, 0.283447, 0.090669, -0.015653, -0.020803, 0.999989, -0.002892, -0.003158, -0.002158, -108.077010, -75.977662, 89.000652, , , 0.000000, , , 
27746, , 9.022657, -1.455737, -1.621887, 1.035817, 0.320233, -0.594127, -1.045925, -0.662352, -0.397490, -0.714355, 0.602539, 0.298340, 0.090250, -0.014820, -0.015843, 0.999979, -0.005230, -0.003312, -0.001987, -110.814932, -76.095413, 91.172759, , , 0.000000, , , 
27747, , 9.270626, -2.321437, -1.433242, 0.468447, -0.371482, -0.167516, -1.269419, -0.704832, -0.391447, -0.714111, 0.595947, 0.309082, 0.092710, -0.023485, -0.013857, 0.999972, -0.006347, -0.003524, -0.001957, -113.373973, -76.154717, 93.061396, , , 0.000000, , , 
27748, , 9.524233, -2.759834, -1.326772, 0.085632, -0.696185, 0.167038, -1.067619, -0.753152, -0.418382, -0.714111, 0.595947, 0.323975, 0.095233, -0.027867, -0.012761, 0.999976, -0.005338, -0.003766, -0.002092, -116.383167, -76.212210, 95.499132, , , 0.000000, , , 
27749, , 9.292999, -3.300179, -0.997926, -0.523071, -1.144589, 0.018999, -0.872656, -0.793349, -0.483329, -0.707275, 0.583008, 0.326172, 0.092888, -0.033268, -0.009466, 0.999980, -0.004363, -0.003967, -0.002417, -119.027750, -76.249984, 97.709015, , , 0.000000, , , 
27750, , 9.073991, -4.664527, -1.475059, -0.705736, -2.619717, 0.132600, -0.581039, -0.876351, -0.514681, -0.713867, 0.580811, 0.338867, 0.090682, -0.046921, -0.014217, 0.999983, -0.002905, -0.004382, -0.002573, -122.127223, -76.260315, 100.526808, , , 0.000000, , , 
27751, , 8.921722, -3.933050, -1.817156, -0.212821, -2.133761, -0.129242, 0.017736, -0.854557, -0.610173, -0.720459, 0.574219, 0.339111, 0.089173, -0.039601, -0.017794, 0.999986, 0.000089, -0.004273, -0.003051, -124.557158, -76.287685, 103.040462, , , 0.000000, , , 
27752, , 8.789089, -2.743071, -1.642045, -0.031420, -1.052350, -0.519701, 0.090118, -0.927766, -0.690625, -0.711426, 0.572021, 0.345459, 0.087870, -0.027727, -0.016025, 0.999983, 0.000451, -0.004639, -0.003453, -127.590162, -76.294281, 106.186238, , , 0.000000, , , 
27753, , 9.168650, -1.299522, -1.852763, 0.575883, 0.243315, -0.389641, 0.181701, -0.946206, -0.790100, -0.718018, 0.569824, 0.358154, 0.091721, -0.013341, -0.018106, 0.999981, 0.000908, -0.004731, -0.003950, -130.364431, -76.310063, 109.150672, , , 0.000000, , , 
27754, , 9.094308, -0.255968, -1.688953, 0.691930, 1.196851, -0.663259, -0.108928, -1.016987, -0.846570, -0.713379, 0.558838, 0.362549, 0.091015, -0.002954, -0.016425, 0.999978, -0.000545, -0.005085, -0.004233, -133.884394, -76.268954, 112.681308, , , 0.000000, , , 
27755, , 9.399028, -0.280605, -1.252173, 0.131178, 1.350226, -0.424045, -0.478315, -1.041602, -0.872648, -0.717773, 0.550049, 0.373291, 0.094040, -0.003245, -0.012025, 0.999974, -0.002392, -0.005208, -0.004363, -137.304506, -76.197750, 115.922179, , , 0.000000, , , 
27756, , 9.846105, -1.821865, -2.293233, 0.314118, -0.370382, 0.448201, -0.587696, -1.182612, -0.890082, -0.719727, 0.543701, 0.377686, 0.098512, -0.018723, -0.022295, 0.999968, -0.002938, -0.005913, -0.004450, -141.321913, -75.998637, 119.686513, , , 0.000000, , , 
27757, , 9.832484, -1.801308, -1.333310, -0.710805, -0.067143, 0.246552, -0.529535, -1.172397, -0.939576, -0.717285, 0.534912, 0.394775, 0.098314, -0.018509, -0.012708, 0.999968, -0.002648, -0.005862, -0.004698, -144.930366, -75.789956, 123.096052, , , 0.000000, , , 
27758, , 10.168762, -2.942263, -2.348197, -0.439792, -1.448696, 0.924156, -0.557951, -1.245289, -0.948577, -0.717285, 0.523926, 0.401367, 0.101690, -0.029969, -0.022766, 0.999965, -0.002790, -0.006226, -0.004743, -148.845752, -75.462668, 126.781628, , , 0.000000, , , 
27759, , 10.174572, -3.725167, -2.228668, -1.023939, -2.168987, 0.985924, -0.472647, -1.280319, -0.946430, -0.714844, 0.519531, 0.416260, 0.101707, -0.037785, -0.021547, 0.999966, -0.002363, -0.006402, -0.004732, -152.277110, -75.096230, 130.051155, , , 0.000000, , , 
27760, , 10.705897, -4.295237, -4.129270, 0.203874, -3.307278, 1.982822, -0.074620, -1.265058, -0.901188, -0.714600, 0.510986, 0.424805, 0.107122, -0.043450, -0.040599, 0.999970, -0.000373, -0.006325, -0.004506, -155.464742, -74.638018, 133.284071, , , 0.000000, , , 
27761, , 10.791703, -3.170418, -3.439170, -0.147239, -2.048851, 1.768303, 0.424224, -1.167292, -0.796174, -0.716797, 0.508789, 0.427002, 0.107988, -0.032062, -0.033829, 0.999973, 0.002121, -0.005836, -0.003981, -157.670888, -74.211870, 135.828389, , , 0.000000, , , 
27762, , 9.801655, -2.787987, -3.436679, 0.056519, -1.906079, 0.771203, 0.616676, -1.133391, -0.777000, -0.714600, 0.504395, 0.431396, 0.098101, -0.028156, -0.033898, 0.999972, 0.003083, -0.005667, -0.003885, -159.786560, -73.726454, 138.373523, , , 0.000000, , , 
27763, , 8.150694, -2.148921, -2.919717, 0.078459, -1.462809, -1.013266, 0.849378, -1.142877, -0.840650, -0.710205, 0.506592, 0.437744, 0.081581, -0.021709, -0.028823, 0.999966, 0.004247, -0.005714, -0.004203, -161.561252, -73.274104, 140.733742, , , 0.000000, , , 
27764, , 7.352590, 2.933831, -4.194956, 3.144328, 2.687038, -1.865572, 1.426025, -1.175584, -1.145716, -0.712402, 0.504395, 0.435547, 0.073938, 0.029212, -0.041307, 0.999941, 0.007130, -0.005878, -0.005728, -163.624428, -72.781358, 143.722631, , , 0.000000, , , 
27765, , 9.136573, 8.288187, 0.975018, -0.257893, 9.611833, -2.023982, 0.341402, -1.304084, -1.329543, -0.712158, 0.495605, 0.448486, 0.091847, 0.082255, 0.010489, 0.999955, 0.001707, -0.006520, -0.006648, -166.377133, -72.262883, 146.815340, , , 0.000000, , , 
27766, , 10.730981, 2.046402, -0.209288, -1.948901, 3.602554, 0.316752, -1.529148, -1.694880, -1.189830, -0.709717, 0.480469, 0.467773, 0.107442, 0.019813, -0.001336, 0.999917, -0.007646, -0.008474, -0.005949, -170.053057, -71.404699, 149.738824, , , 0.000000, , , 
27767, , 10.490689, -1.562515, -1.996704, -1.784523, -0.453249, 0.821552, -1.283434, -1.808578, -1.282619, -0.702637, 0.463135, 0.480713, 0.104977, -0.016422, -0.018914, 0.999918, -0.006417, -0.009043, -0.006413, -173.327318, -70.491576, 152.426481, , , 0.000000, , , 
27768, , 11.772865, -1.572287, -2.265492, -2.210630, -0.441075, 2.066523, -0.768497, -1.947551, -1.438450, -0.702393, 0.449951, 0.502197, 0.117824, -0.016654, -0.021445, 0.999919, -0.003842, -0.009737, -0.007192, -176.421038, -69.407345, 155.228915, , , 0.000000, , , 
27769, , 11.836945, -1.292922, -3.183382, -1.613110, -0.577381, 2.392856, -0.317992, -1.923439, -1.628205, -0.695557, 0.438965, 0.517090, 0.118557, -0.013943, -0.030673, 0.999919, -0.001590, -0.009617, -0.008141, -179.128329, -68.348230, 157.937484, , , 0.000000, , , 
27770, , 12.182695, -1.033983, -1.913109, -3.050903, 0.023329, 2.180181, -0.301980, -2.108098, -1.760255, -0.695312, 0.428223, 0.532227, 0.121922, -0.011440, -0.017830, 0.999905, -0.001510, -0.010540, -0.008801, 178.163708, -67.085308, 160.656465, , , 0.000000, , , 
27771, , 12.856182, -1.189946, -2.114731, -3.509833, -0.227408, 2.788363, -0.635221, -2.210585, -1.840559, -0.692627, 0.406494, 0.551514, 0.128668, -0.013147, -0.019685, 0.999892, -0.003176, -0.011053, -0.009202, 175.543500, -65.768486, 163.119706, , , 0.000000, , , 
27772, , 13.187192, -0.385959, -3.087029, -2.901159, 0.091515, 3.421424, -0.740931, -2.249513, -1.884485, -0.678955, 0.395508, 0.564453, 0.132163, -0.005215, -0.029367, 0.999885, -0.003705, -0.011247, -0.009422, 173.012796, -64.334555, 165.424010, , , 0.000000, , , 
27773, , 13.751051, 0.560789, -2.348176, -3.795977, 1.141519, 3.573585, -1.096437, -2.293592, -1.875634, -0.676514, 0.378174, 0.588135, 0.137812, 0.004193, -0.021928, 0.999875, -0.005482, -0.011467, -0.009378, 170.614993, -62.886415, 167.401050, , , 0.000000, , , 
27774, , 14.156630, 0.974496, -2.094815, -4.436479, 1.496188, 3.745006, -1.512886, -2.318795, -1.896042, -0.669189, 0.352051, 0.605469, 0.141880, 0.008250, -0.019371, 0.999859, -0.007564, -0.011593, -0.009480, 168.136411, -61.340454, 169.207232, , , 0.000000, , , 
27775, , 14.625533, 0.848556, -1.434710, -5.631125, 1.497957, 3.704472, -1.717586, -2.369227, -1.977996, -0.659912, 0.332520, 0.618652, 0.146486, 0.006924, -0.012677, 0.999844, -0.008587, -0.011846, -0.009889, 165.736996, -59.767416, 170.834107, , , 0.000000, , , 
27776, , 15.273812, -0.145230, -0.549094, -7.429236, 0.804504, 3.519643, -1.917821, -2.418019, -2.032757, -0.648193, 0.304199, 0.648682, 0.152764, -0.003046, -0.003620, 0.999829, -0.009589, -0.012089, -0.010163, 163.340774, -58.088229, 172.332360, , , 0.000000, , , 
27777, , 16.037405, -0.329098, 1.057936, -9.538531, 1.182268, 3.072291, -1.957131, -2.490940, -2.066371, -0.636475, 0.278320, 0.668213, 0.160181, -0.004830, 0.012617, 0.999821, -0.009785, -0.012454, -0.010331, 161.140692, -56.373166, 173.616910, , , 0.000000, , , 
27778, , 17.944899, -0.877992, 2.967088, -12.636574, 1.471272, 3.214903, -2.292248, -2.573561, -2.110885, -0.622559, 0.252197, 0.689941, 0.178943, -0.010312, 0.032088, 0.999796, -0.011460, -0.012867, -0.010554, 158.869121, -54.551127, 174.765124, , , 0.000000, , , 
27779, , 19.839279, -1.399234, 4.609109, -15.535052, 1.737057, 3.317743, -2.473692, -2.600283, -2.153736, -0.604004, 0.219727, 0.713867, 0.197608, -0.015530, 0.048850, 0.999781, -0.012368, -0.013000, -0.010768, 156.662905, -52.710152, 175.746563, , , 0.000000, , , 
27780, , 20.137519, -2.873419, 4.917702, -16.920083, 0.543719, 2.489006, -2.915201, -2.660940, -2.275780, -0.594482, 0.182861, 0.733398, 0.200355, -0.030271, 0.052281, 0.999741, -0.014575, -0.013304, -0.011378, 154.256360, -50.776014, 176.670696, , , 0.000000, , , 
27781, , 18.523042, -6.091368, 1.961320, -15.641775, -3.698033, 1.396623, -3.720406, -3.110370, -2.133956, -0.569092, 0.143799, 0.755371, 0.184223, -0.062468, 0.023636, 0.999649, -0.018600, -0.015550, -0.010669, 151.789750, -48.638016, 177.111560, , , 0.000000, , , 
27782, , 19.814497, -6.323874, -0.761511, -15.474379, -5.143182, 3.116978, -3.930122, -3.666582, -2.334204, -0.539307, 0.100586, 0.773193, 0.197468, -0.065632, -0.002716, 0.999571, -0.019648, -0.018330, -0.011669, 149.366567, -46.164673, 177.334528, , , 0.000000, , , 
27783, , 22.927819, -9.085255, -5.818782, -16.543740, -10.122025, 6.490127, -3.592452, -3.108920, -2.849697, -0.520508, 0.061523, 0.795166, 0.228793, -0.095098, -0.052946, 0.999616, -0.017960, -0.015543, -0.014247, 146.860061, -43.794185, 177.970270, , , 0.000000, , , 
27784, , 22.319186, -10.588483, -9.155202, -15.657250, -13.475788, 6.533880, -1.830944, -2.792645, -3.260992, -0.497803, 0.035400, 0.814453, 0.222657, -0.110331, -0.087444, 0.999728, -0.009154, -0.013962, -0.016303, 145.196979, -41.454267, 178.877622, , , 0.000000, , , 
27785, , 22.550167, -10.117241, -10.244048, -15.772701, -13.969126, 6.673439, -0.937776, -2.887378, -3.200186, -0.468506, 0.013916, 0.825439, 0.225282, -0.105247, -0.098700, 0.999757, -0.004688, -0.014436, -0.016000, 144.199718, -39.048635, 179.591650, , , 0.000000, , , 
27786, , 21.836455, -8.293864, -9.594099, -15.473083, -12.307588, 5.894159, 0.283917, -2.976421, -3.087941, -0.444092, 0.014160, 0.836182, 0.218447, -0.086178, -0.092811, 0.999769, 0.001419, -0.014881, -0.015439, 144.035577, -36.678279, -179.854302, , , 0.000000, , , 
27787, , 21.510541, -3.110733, -6.411051, -15.477041, -6.390857, 5.453333, 1.553739, -2.668617, -3.001161, -0.419678, 0.016357, 0.846680, 0.215443, -0.033854, -0.061493, 0.999768, 0.007768, -0.013342, -0.015005, 144.563796, -34.437298, -179.228940, , , 0.000000, , , 
27788, , 15.896189, -1.876564, -11.802946, -8.306643, -8.479384, 6.143814, 2.089590, -1.795166, -2.615470, -0.410889, 0.025146, 0.859131, 0.159761, -0.019627, -0.116800, 0.999820, 0.010447, -0.008975, -0.013077, 145.359681, -32.800240, -178.463992, , , 0.000000, , , 
27789, , 14.859101, -0.798823, -3.390297, -11.252742, -2.944552, 0.067601, 1.076771, -1.467949, -2.150320, -0.399902, 0.029541, 0.861084, 0.148739, -0.009408, -0.032860, 0.999901, 0.005384, -0.007340, -0.010751, 145.637259, -31.413495, -177.822415, , , 0.000000, , , 
27790, , 12.467563, -6.158837, -1.594957, -11.517167, -6.490152, -5.214328, 0.705641, -0.586520, -1.489288, -0.397949, 0.036133, 0.865234, 0.124259, -0.062459, -0.015804, 0.999962, 0.003528, -0.002933, -0.007446, 145.757243, -30.730529, -177.220288, , , 0.000000, , , 
27791, , 8.970645, -2.564796, 0.889836, -8.725313, -2.105865, -7.115392, 1.864384, 0.069573, -1.042635, -0.402588, 0.049072, 0.860840, 0.089574, -0.026196, 0.008625, 0.999943, 0.009322, 0.000348, -0.005213, 146.518172, -30.435136, -176.613080, , , 0.000000, , , 
27792, , 7.089600, 1.323920, 1.204904, -6.349530, 1.362221, -6.451976, 1.583898, 0.659262, -0.650104, -0.398438, 0.062256, 0.858398, 0.070978, 0.012914, 0.011918, 0.999958, 0.007919, 0.003296, -0.003250, 147.148542, -30.633224, -176.010565, , , 0.000000, , , 
27793, , 4.991990, 2.318166, 1.332937, -4.403018, 2.346026, -7.133160, 0.785652, 1.314726, -0.313595, -0.414062, 0.070801, 0.851807, 0.050043, 0.023052, 0.013091, 0.999969, 0.003928, 0.006574, -0.001568, 147.263114, -31.173646, -175.353923, , , 0.000000, , , 
27794, , 3.501434, 0.988577, 1.148286, -3.317085, 1.169319, -8.334480, 0.053823, 1.971831, 0.038704, -0.434082, 0.068604, 0.847656, 0.035123, 0.009890, 0.011140, 0.999951, 0.000269, 0.009859, 0.000194, 146.949442, -32.223948, -174.650408, , , 0.000000, , , 
27795, , 2.199342, -0.677589, -0.418521, -1.769641, -0.976293, -8.635261, -0.048156, 2.595586, 0.510124, -0.458496, 0.070557, 0.834961, 0.021954, -0.006721, -0.004469, 0.999913, -0.000241, 0.012978, 0.002551, 146.550890, -33.632451, -173.964913, , , 0.000000, , , 
27796, , 1.484946, -0.860427, -1.382130, -0.670255, -1.564534, -8.413263, 0.069871, 3.027417, 0.998980, -0.478760, 0.076904, 0.822266, 0.014681, -0.008526, -0.014047, 0.999873, 0.000349, 0.015136, 0.004995, 146.278292, -35.484386, -173.373353, , , 0.000000, , , 
27797, , 1.782237, -0.558916, -1.828101, -0.531483, -1.556762, -7.781896, 0.108690, 3.377088, 1.444985, -0.505615, 0.087646, 0.805176, 0.017550, -0.005452, -0.018582, 0.999831, 0.000543, 0.016884, 0.007225, 146.050384, -37.557172, -172.882919, , , 0.000000, , , 
27798, , 2.337596, -1.304820, -1.426588, -1.285707, -2.059723, -7.994538, 0.151978, 3.703175, 1.863341, -0.537109, 0.098389, 0.788086, 0.023227, -0.012820, -0.014707, 0.999785, 0.000760, 0.018515, 0.009316, 145.914933, -40.002072, -172.491585, , , 0.000000, , , 
27799, , 2.851125, -2.457389, -1.463916, -1.849073, -3.129653, -8.053362, 0.402723, 4.009304, 2.261931, -0.570801, 0.117676, 0.768555, 0.028485, -0.024221, -0.015259, 0.999733, 0.002013, 0.020045, 0.011309, 145.956176, -42.635579, -172.201936, , , 0.000000, , , 
27800, , 3.218239, -2.400786, -1.859153, -1.726242, -3.297213, -7.420484, 1.000300, 4.316044, 2.614162, -0.600098, 0.141357, 0.740723, 0.032079, -0.023492, -0.019403, 0.999669, 0.005001, 0.021578, 0.013069, 146.425073, -45.612555, -172.018661, , , 0.000000, , , 
27801, , 3.496925, -0.874914, -2.285205, -1.036416, -2.148864, -6.274351, 1.427960, 4.585800, 2.900583, -0.629639, 0.169434, 0.712646, 0.034553, -0.008079, -0.023707, 0.999607, 0.007139, 0.022926, 0.014501, 147.189011, -48.725836, -171.942054, , , 0.000000, , , 
27802, , 4.085693, -0.111956, -2.826752, -0.574280, -1.702179, -5.180018, 1.494601, 4.770999, 3.165942, -0.659180, 0.201904, 0.682373, 0.040176, -0.000264, -0.029236, 0.999562, 0.007472, 0.023852, 0.015827, 148.160421, -52.094239, -172.059959, , , 0.000000, , , 
27803, , 5.074933, -0.274889, -3.241456, -0.607282, -2.018488, -4.166187, 1.491470, 4.953012, 3.450894, -0.684326, 0.228027, 0.641846, 0.049960, -0.001634, -0.033673, 0.999517, 0.007456, 0.024761, 0.017252, 149.308365, -55.551069, -172.420709, , , 0.000000, , , 
27804, , 5.789864, -0.394569, -3.762577, -0.249266, -2.266943, -3.284498, 1.635671, 5.130573, 3.742632, -0.711670, 0.262695, 0.607178, 0.056964, -0.002558, -0.039120, 0.999462, 0.008177, 0.025648, 0.018710, 150.900138, -59.255337, -173.168483, , , 0.000000, , , 
27805, , 6.790443, 0.226085, -3.712783, -0.145540, -1.572536, -2.234542, 1.838974, 5.277676, 4.019351, -0.730469, 0.310303, 0.564209, 0.066826, 0.003963, -0.038870, 0.999408, 0.009193, 0.026383, 0.020093, 153.060289, -63.012020, -174.428741, , , 0.000000, , , 
27806, , 8.067775, 0.430737, -3.655521, -0.153180, -1.201248, -1.029877, 1.787578, 5.391920, 4.280355, -0.751221, 0.349365, 0.523193, 0.079533, 0.006357, -0.038659, 0.999368, 0.008936, 0.026954, 0.021397, 156.046691, -66.940302, -176.565963, , , 0.000000, , , 
27807, , 9.410843, 0.436659, -4.107408, 0.353741, -1.125716, 0.394464, 1.745774, 5.503224, 4.496066, -0.760986, 0.390869, 0.473877, 0.092797, 0.006836, -0.043587, 0.999331, 0.008727, 0.027510, 0.022475, 160.189797, -70.833560, -179.930450, , , 0.000000, , , 
27808, , 10.732708, 0.564288, -5.132104, 1.643912, -1.020601, 1.936223, 1.766921, 5.634962, 4.668817, -0.768555, 0.434326, 0.428467, 0.105648, 0.008593, -0.054247, 0.999292, 0.008833, 0.028168, 0.023339, 166.634537, -74.774565, 174.411999, , , 0.000000, , , 
27809, , 11.883515, 0.871030, -5.924562, 3.032513, -0.566557, 3.128399, 1.902123, 5.779679, 4.771688, -0.771729, 0.478027, 0.379150, 0.116798, 0.012098, -0.062537, 0.999253, 0.009508, 0.028891, 0.023852, 177.146204, -78.457827, 164.735827, , , 0.000000, , , 
27810, , 13.661340, 0.585676, -6.181962, 3.842751, -0.363886, 4.684772, 1.884605, 5.901279, 4.864958, -0.770508, 0.525879, 0.327393, 0.134506, 0.009753, -0.065730, 0.999225, 0.009421, 0.029499, 0.024319, -163.300218, -81.575281, 146.013151, , , 0.000000, , , 
27811, , 15.223951, 0.242910, -6.944572, 5.380937, -0.275789, 6.026317, 1.886311, 6.041689, 4.934944, -0.764648, 0.565430, 0.271729, 0.149918, 0.006831, -0.073948, 0.999195, 0.009429, 0.030200, 0.024668, -130.335894, -82.985770, 113.857837, , , 0.000000, , , 
27812, , 17.129741, 1.107022, -8.587767, 8.351914, 0.891718, 7.439858, 2.004669, 6.142298, 4.949993, -0.749756, 0.606934, 0.213867, 0.168198, 0.016154, -0.090931, 0.999172, 0.010021, 0.030703, 0.024743, -95.846247, -81.679179, 80.255642, , , 0.000000, , , 
27813, , 18.960601, 1.778081, -10.586111, 11.814841, 1.901902, 8.387932, 2.010316, 6.169915, 4.900562, -0.735107, 0.646240, 0.153809, 0.185697, 0.023465, -0.111414, 0.999174, 0.010049, 0.030841, 0.024496, -75.520302, -78.569350, 60.808219, , , 0.000000, , , 
27814, , 21.139640, 3.863209, -11.986365, 15.246564, 4.598378, 8.937156, 2.029221, 6.115044, 4.746855, -0.709229, 0.683594, 0.102295, 0.206595, 0.044831, -0.125796, 0.999200, 0.010143, 0.030567, 0.023728, -64.273358, -74.739091, 50.467304, , , 0.000000, , , 
27815, , 22.882380, 6.828627, -13.167587, 18.607070, 8.113101, 8.386902, 1.599369, 5.927061, 4.364269, -0.685059, 0.707764, 0.059570, 0.223223, 0.074284, -0.137769, 0.999291, 0.007995, 0.029628, 0.021816, -57.652570, -70.896977, 44.502746, , , 0.000000, , , 
27816, , 21.774337, 8.918724, -15.117413, 21.706349, 9.822468, 4.824603, 0.769785, 5.524417, 3.963742, -0.665527, 0.731934, 0.020996, 0.211633, 0.094019, -0.156721, 0.999415, 0.003848, 0.027617, 0.019815, -53.696442, -67.190385, 40.749833, , , 0.000000, , , 
27817, , 17.971430, 7.156150, -17.068255, 22.873380, 6.918202, -0.103931, -0.228877, 4.833848, 3.644609, -0.637207, 0.760498, -0.004883, 0.174178, 0.074571, -0.175022, 0.999541, -0.001144, 0.024166, 0.018220, -51.749853, -63.847242, 38.470043, , , 0.000000, , , 
27818, , 16.415460, 5.536695, -18.657626, 24.007329, 4.599053, -2.699932, -0.277248, 4.071310, 3.387150, -0.617676, 0.778320, -0.028564, 0.159345, 0.057831, -0.189932, 0.999648, -0.001386, 0.020354, 0.016934, -50.752749, -60.851858, 37.166076, , , 0.000000, , , 
27819, , 14.086482, 8.998215, -20.018675, 25.122380, 6.650450, -7.652101, -0.045397, 3.556149, 2.907493, -0.591309, 0.795898, -0.041504, 0.135949, 0.091937, -0.202654, 0.999736, -0.000227, 0.017779, 0.014536, -49.907846, -58.265111, 36.158505, , , 0.000000, , , 
27820, , 7.528692, 12.294395, -21.283875, 23.945417, 7.035006, -15.968920, -0.506819, 2.633231, 2.184283, -0.575928, 0.802490, -0.047852, 0.071129, 0.123194, -0.214106, 0.999850, -0.002534, 0.013165, 0.010921, -49.678680, -56.336736, 35.530604, , , 0.000000, , , 
27821, , 1.568413, 13.861496, -21.680038, 21.715997, 6.057630, -22.315588, -1.052201, 1.267089, 1.298475, -0.571533, 0.804688, -0.043701, 0.013412, 0.137563, -0.217616, 0.999945, -0.005261, 0.006335, 0.006492, -50.158782, -55.296327, 35.384629, , , 0.000000, , , 
27822, , -1.572654, 14.575689, -19.748335, 18.706400, 5.909366, -24.647075, -1.501550, -0.161795, 0.280201, -0.567139, 0.811279, -0.027100, -0.015769, 0.144247, -0.198583, 0.999971, -0.007508, -0.000809, 0.001401, -51.297550, -55.253732, 35.703292, , , 0.000000, , , 
27823, , -0.103039, 12.509089, -18.310950, 18.053461, 4.741367, -21.785175, -2.054124, -1.730726, -0.627070, -0.578125, 0.802490, -0.001465, 0.000950, 0.123201, -0.184379, 0.999905, -0.010270, -0.008653, -0.003135, -53.292059, -56.141009, 36.695378, , , 0.000000, , , 
27824, , 4.813606, 10.208287, -17.519228, 19.445408, 4.432425, -15.853291, -1.617456, -2.771836, -1.461687, -0.586914, 0.793457, 0.032471, 0.051303, 0.100298, -0.175312, 0.999845, -0.008087, -0.013858, -0.007308, -55.496251, -57.785706, 38.192129, , , 0.000000, , , 
27825, , 12.336878, 4.406082, -5.097383, 10.439149, 6.069942, -2.618837, -2.605705, -3.334202, -1.900034, -0.593506, 0.786865, 0.081299, 0.124609, 0.042230, -0.049461, 0.999731, -0.013027, -0.016670, -0.009499, -58.645659, -59.735169, 40.131286, , , 0.000000, , , 
27826, , 26.095822, -20.820508, 19.884284, -13.556071, -1.542325, 26.560883, -7.868757, -2.952355, -0.685558, -0.602295, 0.771240, 0.166016, 0.257209, -0.200956, 0.210662, 0.999111, -0.039332, -0.014757, -0.003427, -65.515356, -60.925011, 42.816717, , , 0.000000, , , 
27827, , 18.007963, -49.025948, 16.473361, -23.995284, -27.588654, 30.950481, -4.866344, -1.591927, 0.374182, -0.588867, 0.767090, 0.168213, 0.179609, -0.485699, 0.178020, 0.999671, -0.024329, -0.007959, 0.001871, -69.959311, -61.070404, 44.712028, , , 0.000000, , , 
27828, , 12.279425, -8.728679, 1.612139, 0.064756, -2.593993, 5.113091, 9.802858, -0.702170, -1.553116, -0.611084, 0.771484, 0.075195, 0.122060, -0.088900, 0.012219, 0.998763, 0.048994, -0.003509, -0.007762, -64.452201, -62.071837, 44.809494, , , 0.000000, , , 
27829, , 13.527761, 38.720870, 0.704804, 12.369865, 38.953001, -13.154199, 9.160161, -1.709135, -2.617765, -0.622070, 0.764893, 0.075439, 0.140156, 0.384497, 0.025888, 0.998829, 0.045783, -0.008542, -0.013084, -59.502439, -63.852967, 45.147431, , , 0.000000, , , 
27830, , 24.820241, 8.814431, -15.131206, 23.131891, 11.104518, 6.437746, -6.118991, -4.847317, -1.208053, -0.621826, 0.753906, 0.138916, 0.252322, 0.082070, -0.147802, 0.999220, -0.030587, -0.024230, -0.006039, -67.696498, -65.748790, 50.304975, , , 0.000000, , , 
27831, , 29.179001, -15.794262, -23.654275, 25.383631, -12.491399, 19.511594, 0.220947, -3.454817, -1.683538, -0.628418, 0.747070, 0.149658, 0.294478, -0.160156, -0.231647, 0.999815, 0.001105, -0.017273, -0.008417, -71.041182, -67.348300, 54.090389, , , 0.000000, , , 
27832, , 19.121262, 1.258923, -4.652474, 8.720627, 5.654984, 6.944197, 4.613072, -2.647975, -2.159709, -0.643799, 0.742676, 0.122314, 0.191932, 0.011549, -0.043712, 0.999588, 0.023062, -0.013238, -0.010797, -71.105845, -69.058482, 56.972843, , , 0.000000, , , 
27833, , 10.709562, 11.012595, 1.629019, 2.588808, 13.719868, -3.205018, 2.304821, -2.333038, -1.796516, -0.652344, 0.731934, 0.133057, 0.107868, 0.108952, 0.018806, 0.999825, 0.011523, -0.011665, -0.008982, -72.332549, -70.454297, 59.689741, , , 0.000000, , , 
27834, , 5.275831, -0.457923, -4.174498, 4.768082, 0.114996, -5.046160, -0.184710, -2.586574, -1.268868, -0.656738, 0.720947, 0.150146, 0.053262, -0.004954, -0.041054, 0.999896, -0.000924, -0.012932, -0.006344, -76.166799, -71.608122, 63.599357, , , 0.000000, , , 
27835, , 5.625246, -4.394504, -4.668443, 4.426874, -3.558660, -3.449718, 1.172732, -2.275632, -1.126637, -0.658936, 0.722900, 0.154297, 0.056533, -0.043991, -0.046300, 0.999902, 0.005863, -0.011378, -0.005633, -78.978340, -72.519047, 67.262607, , , 0.000000, , , 
27836, , 6.966057, 2.053963, -4.053375, 5.065871, 3.022999, -3.950076, 1.550005, -1.801070, -0.956642, -0.663574, 0.725098, 0.154297, 0.070119, 0.020515, -0.039745, 0.999918, 0.007750, -0.009005, -0.004783, -81.288809, -73.279575, 70.574740, , , 0.000000, , , 
27837, , 10.342190, 3.898285, -2.910228, 4.418207, 5.918199, -1.090454, 0.195445, -1.749587, -0.767313, -0.658691, 0.714355, 0.163086, 0.103820, 0.038613, -0.028157, 0.999954, 0.000977, -0.008748, -0.003837, -84.338149, -73.841521, 73.872687, , , 0.000000, , , 
27838, , 12.140236, 2.146682, -1.917255, 3.097674, 4.897144, 1.236723, -0.820197, -1.343281, -0.505517, -0.663086, 0.707764, 0.177979, 0.121581, 0.021083, -0.018443, 0.999966, -0.004101, -0.006716, -0.002528, -87.655571, -74.225093, 76.799188, , , 0.000000, , , 
27839, , 11.766264, 2.873330, -0.530046, 1.712623, 5.724298, 0.736257, -1.441369, -1.246345, -0.258425, -0.663086, 0.705566, 0.197021, 0.117730, 0.028546, -0.004773, 0.999954, -0.007207, -0.006232, -0.001292, -90.992316, -74.382510, 79.409255, , , 0.000000, , , 
27840, , 11.228791, 0.775243, -1.073129, 1.682318, 3.480488, 0.812428, -2.490079, -1.231297, -0.072798, -0.660645, 0.696777, 0.230957, 0.112354, 0.007583, -0.010135, 0.999903, -0.012450, -0.006156, -0.000364, -95.203544, -74.425017, 82.264481, , , 0.000000, , , 
27841, , 10.945625, -4.664852, -2.438814, 1.628203, -2.003598, 2.055115, -2.403086, -1.166633, -0.068061, -0.658447, 0.692383, 0.248047, 0.109578, -0.046969, -0.023186, 0.999911, -0.012015, -0.005833, -0.000340, -98.950918, -74.383123, 84.727480, , , 0.000000, , , 
27842, , 11.086627, -8.715490, -2.660664, 0.624274, -5.804130, 3.297282, -0.862532, -1.040757, -0.248466, -0.656006, 0.687988, 0.252197, 0.110893, -0.087405, -0.025653, 0.999976, -0.004313, -0.005204, -0.001242, -101.904318, -74.448272, 87.243900, , , 0.000000, , , 
27843, , 10.532860, -7.022867, -1.832778, 0.129939, -4.188337, 2.272910, 1.044806, -0.891985, -0.506913, -0.660645, 0.694580, 0.250000, 0.105232, -0.070400, -0.018226, 0.999973, 0.005224, -0.004460, -0.002535, -103.315201, -74.622538, 89.330773, , , 0.000000, , , 
27844, , 9.949736, -3.224923, -1.021341, 0.209153, -0.640341, 0.674756, 1.582895, -0.824527, -0.621375, -0.660400, 0.685791, 0.250244, 0.099438, -0.032478, -0.010060, 0.999955, 0.007914, -0.004123, -0.003107, -104.678307, -74.876092, 91.647171, , , 0.000000, , , 
27845, , 9.405555, -1.104730, -1.012079, 0.630758, 1.180019, -0.383030, 1.071846, -0.766135, -0.587281, -0.662842, 0.687988, 0.245850, 0.094061, -0.011270, -0.009820, 0.999974, 0.005359, -0.003831, -0.002936, -105.951156, -75.087390, 93.602719, , , 0.000000, , , 
27846, , 8.961738, -0.357773, -1.382304, 1.077893, 1.665391, -0.957430, 0.219921, -0.775024, -0.510885, -0.665039, 0.687988, 0.250244, 0.089661, -0.003792, -0.013480, 0.999989, 0.001100, -0.003875, -0.002554, -108.033097, -75.254349, 95.850948, , , 0.000000, , , 
27847, , 8.954210, -1.247806, -1.395177, 0.819671, 0.794835, -0.736503, -0.737138, -0.774546, -0.358583, -0.662598, 0.679199, 0.262939, 0.089572, -0.012689, -0.013558, 0.999984, -0.003686, -0.003873, -0.001793, -110.286011, -75.305836, 97.745443, , , 0.000000, , , 
27848, , 8.831537, -2.957583, -1.659321, 0.596670, -0.931087, -0.417325, -0.950380, -0.774062, -0.279034, -0.662598, 0.677002, 0.271484, 0.088337, -0.029776, -0.016110, 0.999980, -0.004752, -0.003870, -0.001395, -112.912024, -75.303669, 99.861706, , , 0.000000, , , 
27849, , 8.984343, -4.655270, -1.623870, 0.054551, -2.504898, 0.124530, -0.853931, -0.784560, -0.296488, -0.655762, 0.666260, 0.282227, 0.089836, -0.046754, -0.015687, 0.999982, -0.004270, -0.003923, -0.001482, -115.208381, -75.279027, 101.731804, , , 0.000000, , , 
27850, , 8.689964, -5.029497, -1.939431, 0.176502, -3.019256, -0.044109, -0.095799, -0.780221, -0.356103, -0.662598, 0.672607, 0.288574, 0.086885, -0.050459, -0.019031, 0.999991, -0.000479, -0.003901, -0.001781, -117.412282, -75.269609, 103.918519, , , 0.000000, , , 
27851, , 8.411915, -2.354515, -1.858465, 0.687870, -0.561994, -0.926261, 0.477915, -0.822037, -0.498256, -0.664551, 0.670410, 0.288574, 0.084136, -0.023711, -0.018295, 0.999986, 0.002390, -0.004110, -0.002491, -119.213984, -75.301431, 106.066178, , , 0.000000, , , 
27852, , 8.302321, -2.027050, -1.853754, 0.689357, -0.303874, -1.100294, 0.360225, -0.859957, -0.615903, -0.662354, 0.663818, 0.286621, 0.083039, -0.020493, -0.018217, 0.999984, 0.001801, -0.004300, -0.003079, -121.588145, -75.355105, 108.698998, , , 0.000000, , , 
27853, , 8.326354, -2.227446, -1.331589, 0.056246, -0.412583, -1.101276, 0.208388, -0.969111, -0.682153, -0.666748, 0.661621, 0.299316, 0.083250, -0.022545, -0.012936, 0.999982, 0.001042, -0.004846, -0.003411, -124.050596, -75.386851, 111.369063, , , 0.000000, , , 
27854, , 8.621695, -2.860225, -0.907794, -0.635196, -0.901772, -0.750637, -0.116724, -1.111239, -0.736726, -0.664307, 0.657227, 0.303711, 0.086159, -0.028925, -0.008582, 0.999978, -0.000584, -0.005556, -0.003684, -127.310443, -75.350014, 114.635044, , , 0.000000, , , 
27855, , 9.015070, -2.914254, -1.130461, -0.591653, -0.954405, -0.337468, -0.193864, -1.223161, -0.790493, -0.668945, 0.657227, 0.316406, 0.090101, -0.029509, -0.010725, 0.999973, -0.000969, -0.006116, -0.003952, -130.571198, -75.266421, 117.892842, , , 0.000000, , , 
27856, , 10.196376, -3.111001, -0.367414, -1.670798, -0.778434, 0.693473, -0.367967, -1.347351, -0.819953, -0.666260, 0.644287, 0.324951, 0.101856, -0.031534, -0.002930, 0.999967, -0.001840, -0.006737, -0.004100, -134.381855, -75.075293, 121.583816, , , 0.000000, , , 
27857, , 7.972105, -1.123466, -4.217896, 2.655919, -0.195822, -1.122853, -0.156954, -1.378386, -0.947835, -0.663818, 0.633301, 0.331543, 0.079955, -0.011646, -0.041619, 0.999965, -0.000785, -0.006892, -0.004739, -137.958390, -74.886599, 125.195347, , , 0.000000, , , 
27858, , 10.405063, 2.260176, -2.590408, 1.342240, 3.829571, 0.366354, 0.092068, -1.637101, -1.071474, -0.666260, 0.633301, 0.346436, 0.104377, 0.022055, -0.025040, 0.999952, 0.000460, -0.008185, -0.005357, -142.060673, -74.537733, 129.470624, , , 0.000000, , , 
27859, , 10.041740, 0.040426, -1.708727, -0.142839, 1.736676, 0.223176, -0.457415, -1.506211, -0.989713, -0.672607, 0.624512, 0.352783, 0.100543, -0.000131, -0.016330, 0.999957, -0.002287, -0.007531, -0.004948, -145.766242, -74.179523, 133.048103, , , 0.000000, , , 
27860, , 9.310853, -1.421649, -2.990468, 0.680955, -0.133775, 0.044852, -0.454433, -1.694429, -0.994428, -0.665771, 0.613525, 0.374268, 0.093285, -0.014747, -0.029082, 0.999949, -0.002272, -0.008472, -0.004972, -149.699701, -73.632282, 136.839035, , , 0.000000, , , 
27861, , 9.219252, -0.685981, -2.768952, 0.480352, 0.540124, -0.189444, -0.346034, -1.680563, -0.962446, -0.670166, 0.613525, 0.384766, 0.092386, -0.007351, -0.026901, 0.999952, -0.001730, -0.008403, -0.004812, -153.052072, -73.056588, 140.132805, , , 0.000000, , , 
27862, , 9.316000, -1.001415, -2.725447, 0.146258, 0.202807, -0.058052, -0.506949, -1.733647, -0.957014, -0.665527, 0.600586, 0.397705, 0.093342, -0.010528, -0.026420, 0.999948, -0.002535, -0.008668, -0.004785, -156.472874, -72.355410, 143.379755, , , 0.000000, , , 
27863, , 10.048904, -1.604605, -2.536254, -0.555732, -0.270854, 0.656385, -0.651119, -1.770824, -0.976661, -0.665283, 0.589600, 0.412842, 0.100628, -0.016618, -0.024418, 0.999944, -0.003256, -0.008854, -0.004883, -159.606418, -71.629117, 146.283937, , , 0.000000, , , 
27864, , 11.345154, -1.823574, -2.583860, -1.143897, -0.336708, 1.904269, -0.724046, -1.806291, -0.933396, -0.665039, 0.580811, 0.423584, 0.113591, -0.018857, -0.024746, 0.999942, -0.003620, -0.009031, -0.004667, -162.639546, -70.782302, 149.018672, , , 0.000000, , , 
27865, , 12.897881, -0.865624, -2.812777, -1.383069, 0.728069, 3.323789, -0.771717, -1.779495, -0.899800, -0.653809, 0.572266, 0.444824, 0.129181, -0.009343, -0.026944, 0.999943, -0.003859, -0.008897, -0.004499, -165.259282, -69.950503, 151.332189, , , 0.000000, , , 
27866, , 13.273455, 1.245357, -3.525899, -0.577444, 2.589227, 3.719642, -0.775703, -1.700101, -0.875562, -0.653564, 0.556885, 0.464111, 0.133081, 0.011738, -0.034175, 0.999947, -0.003878, -0.008500, -0.004378, -167.740202, -69.078111, 153.475949, , , 0.000000, , , 
27867, , 12.192963, 3.173861, -3.174639, -0.293179, 4.270268, 2.454917, -0.923134, -1.715676, -0.878859, -0.648926, 0.554688, 0.474609, 0.122334, 0.031058, -0.030843, 0.999943, -0.004616, -0.008578, -0.004394, -170.017835, -68.216165, 155.355088, , , 0.000000, , , 
27868, , 10.599166, 2.369886, -1.587710, -1.620908, 3.524397, 0.455086, -1.290373, -1.784658, -0.984449, -0.646484, 0.537354, 0.494141, 0.106243, 0.023077, -0.015080, 0.999927, -0.006452, -0.008923, -0.004922, -172.605428, -67.247802, 157.321507, , , 0.000000, , , 
27869, , 9.059027, 0.411821, -2.413843, -1.065651, 1.138970, -0.559296, -1.386401, -1.892162, -1.157538, -0.641846, 0.524414, 0.511230, 0.090835, 0.003429, -0.023305, 0.999914, -0.006932, -0.009461, -0.005788, -175.203476, -66.245569, 159.286161, , , 0.000000, , , 
27870, , 9.110556, -1.205025, -1.936038, -2.182314, -0.376960, -0.686188, -1.139316, -1.997318, -1.342080, -0.634766, 0.511230, 0.524170, 0.091208, -0.012769, -0.018378, 0.999911, -0.005696, -0.009986, -0.006710, -177.803634, -65.107180, 161.392321, , , 0.000000, , , 
27871, , 10.320823, -1.952289, -2.892252, -2.291472, -1.270888, 0.761921, -1.128860, -2.093911, -1.456419, -0.632080, 0.491699, 0.549805, 0.103356, -0.020434, -0.027727, 0.999903, -0.005644, -0.010469, -0.007282, 179.754143, -63.926982, 163.382693, , , 0.000000, , , 
27872, , 11.728151, -1.369602, -3.110561, -2.831388, -0.713521, 2.043325, -1.047541, -2.197194, -1.513706, -0.625244, 0.480713, 0.566895, 0.117504, -0.014743, -0.029740, 0.999897, -0.005238, -0.010986, -0.007568, 177.418320, -62.603879, 165.296419, , , 0.000000, , , 
27873, , 13.059121, -0.437035, -3.245564, -3.370042, 0.160891, 3.220704, -1.271399, -2.248046, -1.588270, -0.620361, 0.461182, 0.584229, 0.130904, -0.005609, -0.030952, 0.999885, -0.006357, -0.011240, -0.007941, 175.140918, -61.264485, 167.053209, , , 0.000000, , , 
27874, , 14.195452, -0.158532, -2.673340, -4.677144, 0.548970, 3.843442, -1.564955, -2.320162, -1.648426, -0.613281, 0.439453, 0.605957, 0.142231, -0.002957, -0.025065, 0.999868, -0.007824, -0.011600, -0.008242, 172.768602, -59.801101, 168.719700, , , 0.000000, , , 
27875, , 14.760588, 0.142211, -2.115761, -5.708029, 0.887882, 3.934480, -1.841236, -2.353208, -1.693511, -0.604004, 0.417725, 0.627441, 0.147845, -0.000013, -0.019423, 0.999853, -0.009206, -0.011765, -0.008467, 170.437594, -58.330358, 170.208786, , , 0.000000, , , 
27876, , 14.842007, 0.201481, -0.859526, -7.132516, 1.177588, 3.179152, -2.129946, -2.457413, -1.726607, -0.592285, 0.391602, 0.651123, 0.148520, 0.000654, -0.006783, 0.999831, -0.010649, -0.012286, -0.008633, 168.052265, -56.723963, 171.562333, , , 0.000000, , , 
27877, , 15.295686, 0.399173, 0.541115, -8.781310, 1.725757, 2.609198, -2.413686, -2.527618, -1.752306, -0.580811, 0.369873, 0.672852, 0.152900, 0.002732, 0.007306, 0.999809, -0.012068, -0.012637, -0.008761, 165.707375, -55.090223, 172.725344, , , 0.000000, , , 
27878, , 16.764535, 1.367068, 2.615790, -11.234748, 3.354445, 2.527154, -2.586489, -2.537010, -1.792180, -0.569092, 0.341797, 0.698730, 0.167413, 0.012525, 0.028116, 0.999796, -0.012932, -0.012684, -0.008960, 163.346307, -53.382722, 173.782404, , , 0.000000, , , 
27879, , 18.943256, 1.875509, 5.609061, -14.874053, 5.025512, 2.324614, -3.205076, -2.574094, -1.865951, -0.554688, 0.296143, 0.720703, 0.188862, 0.017913, 0.058232, 0.999745, -0.016024, -0.012869, -0.009329, 160.772828, -51.654603, 174.712689, , , 0.000000, , , 
27880, , 21.000819, 1.561017, 5.685554, -16.631750, 4.884938, 3.427188, -3.852162, -2.623628, -2.010501, -0.540527, 0.261475, 0.740479, 0.209391, 0.014630, 0.059317, 0.999678, -0.019259, -0.013117, -0.010051, 157.855426, -49.818719, 175.603468, , , 0.000000, , , 
27881, , 20.306775, 0.793257, 3.841457, -15.576485, 3.343426, 3.375025, -4.139720, -2.661336, -2.305057, -0.532959, 0.218018, 0.764404, 0.202614, 0.006426, 0.040970, 0.999631, -0.020696, -0.013305, -0.011524, 154.796693, -47.895917, 176.516852, , , 0.000000, , , 
27882, , 18.558450, -6.513857, -2.454084, -13.631946, -6.166795, 3.183861, -5.365761, -3.177678, -2.267952, -0.500488, 0.159424, 0.793213, 0.185165, -0.067814, -0.019801, 0.999450, -0.026824, -0.015885, -0.011338, 151.326876, -45.673515, 177.031840, , , 0.000000, , , 
27883, , 21.333948, -14.759320, -3.115161, -19.295184, -13.327804, 1.696595, -5.792933, -3.962105, -2.255927, -0.477295, 0.109619, 0.815186, 0.212155, -0.150728, -0.022604, 0.999321, -0.028958, -0.019806, -0.011277, 148.034015, -43.065200, 176.995386, , , 0.000000, , , 
27884, , 24.028056, -9.715872, -8.768949, -17.086498, -12.141169, 7.769443, -2.705151, -2.980976, -2.894810, -0.451904, 0.070557, 0.828613, 0.240088, -0.101777, -0.082754, 0.999693, -0.013524, -0.014903, -0.014473, 146.044398, -40.730843, 177.635679, , , 0.000000, , , 
27885, , 23.309063, -11.910583, -7.068268, -19.132833, -13.114557, 4.219863, -3.125335, -3.019638, -2.912776, -0.426514, 0.031738, 0.840088, 0.232325, -0.123542, -0.065263, 0.999658, -0.015625, -0.015096, -0.014562, 143.941876, -38.359489, 178.126992, , , 0.000000, , , 
27886, , 22.136031, -16.159912, -8.868069, -19.672753, -17.695213, 1.568660, -1.684712, -2.764838, -2.752577, -0.408447, 0.018799, 0.850830, 0.220287, -0.165358, -0.084248, 0.999774, -0.008423, -0.013823, -0.013762, 142.724629, -36.161168, 178.540466, , , 0.000000, , , 
27887, , 18.884794, -7.785573, -7.464314, -14.957750, -10.385474, 2.076167, 1.194596, -2.667052, -2.739031, -0.379639, 0.019043, 0.857178, 0.188739, -0.080003, -0.072599, 0.999799, 0.005973, -0.013334, -0.013694, 143.174210, -33.998954, 178.951479, , , 0.000000, , , 
27888, , 18.477640, -4.237407, -4.272269, -15.073364, -5.730784, 1.029727, 1.271038, -2.286057, -2.480707, -0.361816, 0.021240, 0.865479, 0.184708, -0.044402, -0.040889, 0.999838, 0.006355, -0.011430, -0.012403, 143.672703, -32.127063, 179.390501, , , 0.000000, , , 
27889, , 12.990331, -1.649116, -13.278044, -6.007667, -9.042659, 5.350033, 3.006191, -1.460290, -2.167324, -0.351318, 0.042969, 0.869385, 0.130695, -0.015916, -0.132070, 0.999802, 0.015030, -0.007301, -0.010836, 145.074804, -30.726759, -179.992510, , , 0.000000, , , 
27890, , 12.155892, 0.509736, -3.180085, -9.036666, -1.434896, -1.186341, 1.109029, -1.123114, -1.725199, -0.346924, 0.047363, 0.873535, 0.121774, 0.004221, -0.031092, 0.999932, 0.005545, -0.005615, -0.008626, 145.462211, -29.669548, -179.468976, , , 0.000000, , , 
27891, , 10.441434, -5.444861, -3.504549, -9.099829, -6.593915, -4.846346, 0.615892, -0.221351, -1.002783, -0.349365, 0.053955, 0.875488, 0.104179, -0.054863, -0.035099, 0.999982, 0.003079, -0.001107, -0.005014, 145.586958, -29.242975, -179.002359, , , 0.000000, , , 
27892, , 7.432548, -2.908327, -1.137676, -6.747482, -3.191915, -6.766729, 2.003420, 0.445500, -0.486065, -0.352051, 0.071289, 0.870850, 0.074229, -0.029147, -0.011834, 0.999944, 0.010017, 0.002227, -0.002430, 146.539348, -29.340627, -178.565487, , , 0.000000, , , 
27893, , 6.952267, 1.606760, -0.187287, -5.571995, 1.084910, -5.485276, 2.113227, 1.032736, -0.153619, -0.365479, 0.086426, 0.862061, 0.069525, 0.016035, -0.002062, 0.999931, 0.010566, 0.005164, -0.000768, 147.524468, -29.792526, -178.105391, , , 0.000000, , , 
27894, , 5.055976, 2.751286, -0.319549, -3.570542, 2.023776, -5.764240, 1.662214, 1.884618, 0.092451, -0.381348, 0.097168, 0.851318, 0.050515, 0.027564, -0.003443, 0.999921, 0.008311, 0.009423, 0.000462, 148.181491, -30.780624, -177.482514, , , 0.000000, , , 
27895, , 3.265406, 1.874869, -0.308711, -2.202555, 1.325533, -7.044179, 1.105215, 2.578764, 0.417071, -0.404053, 0.114502, 0.836182, 0.032572, 0.018835, -0.003404, 0.999899, 0.005526, 0.012893, 0.002085, 148.463009, -32.167036, -176.806218, , , 0.000000, , , 
27896, , 2.539128, 0.169050, -0.814706, -1.678560, -0.385613, -7.769996, 0.706272, 3.179230, 0.808230, -0.435303, 0.118652, 0.825684, 0.025250, 0.001822, -0.008543, 0.999859, 0.003531, 0.015895, 0.004041, 148.515735, -34.009326, -176.130428, , , 0.000000, , , 
27897, , 2.432276, -1.120475, -1.244879, -1.594579, -1.725456, -8.023755, 0.769618, 3.631396, 1.236282, -0.462402, 0.140137, 0.808350, 0.024159, -0.011006, -0.012931, 0.999809, 0.003848, 0.018156, 0.006181, 148.617492, -36.157629, -175.537871, , , 0.000000, , , 
27898, , 3.470100, -0.417685, -1.664300, -1.914013, -1.382335, -6.745259, 1.019465, 4.076918, 1.638758, -0.495850, 0.150879, 0.782715, 0.034384, -0.003807, -0.017366, 0.999746, 0.005097, 0.020383, 0.008193, 148.899853, -38.689807, -175.012981, , , 0.000000, , , 
27899, , 3.679984, 0.597101, -1.673801, -1.655125, -0.501879, -6.110563, 0.927170, 4.462343, 1.978413, -0.531738, 0.167969, 0.759033, 0.036353, 0.006412, -0.017523, 0.999691, 0.004635, 0.022309, 0.009891, 149.139340, -41.468975, -174.557641, , , 0.000000, , , 
27900, , 4.251092, 0.186997, -1.919350, -1.827708, -1.003666, -5.636848, 0.792679, 4.734186, 2.315825, -0.567871, 0.189453, 0.733398, 0.042015, 0.002437, -0.020183, 0.999645, 0.003963, 0.023668, 0.011578, 149.375088, -44.527381, -174.211593, , , 0.000000, , , 
27901, , 5.028921, 0.019893, -1.634233, -2.363084, -1.059153, -5.203195, 0.901186, 5.045130, 2.667748, -0.597168, 0.213135, 0.701172, 0.049846, 0.000943, -0.017600, 0.999583, 0.004505, 0.025222, 0.013337, 149.735575, -47.797727, -173.993429, , , 0.000000, , , 
27902, , 5.075672, 0.252001, -1.523108, -2.120921, -0.770708, -5.012201, 0.934204, 5.288476, 2.988746, -0.631104, 0.232666, 0.669189, 0.050285, 0.003349, -0.016551, 0.999528, 0.004670, 0.026438, 0.014941, 150.244807, -51.327829, -173.935206, , , 0.000000, , , 
27903, , 5.575004, 0.628725, -1.894779, -1.725486, -0.566162, -4.177419, 0.893019, 5.450072, 3.306372, -0.658203, 0.262939, 0.632568, 0.055092, 0.007291, -0.020424, 0.999482, 0.004464, 0.027246, 0.016529, 150.907478, -54.982245, -174.121777, , , 0.000000, , , 
27904, , 6.093449, 0.893490, -2.706787, -0.919870, -0.605390, -3.177518, 0.880133, 5.587696, 3.619606, -0.690186, 0.297607, 0.593994, 0.059971, 0.010150, -0.028710, 0.999436, 0.004400, 0.027933, 0.018095, 151.867975, -58.836435, -174.643479, , , 0.000000, , , 
27905, , 6.549482, 1.034224, -3.612896, 0.083896, -0.742133, -2.300208, 1.054272, 5.699285, 3.909074, -0.708740, 0.332275, 0.552979, 0.064210, 0.011803, -0.037912, 0.999389, 0.005270, 0.028491, 0.019541, 153.336515, -62.770469, -175.631226, , , 0.000000, , , 
27906, , 7.299213, 1.270613, -4.240624, 0.891996, -0.630342, -1.347958, 1.214423, 5.716711, 4.162803, -0.722900, 0.369385, 0.512207, 0.071453, 0.014470, -0.044379, 0.999357, 0.006071, 0.028577, 0.020810, 155.631277, -66.804107, -177.375902, , , 0.000000, , , 
27907, , 8.790364, 0.601291, -5.061752, 1.420765, -1.370300, 0.152830, 1.316909, 5.669761, 4.427265, -0.732422, 0.408447, 0.458496, 0.086256, 0.008279, -0.053029, 0.999332, 0.006583, 0.028342, 0.022131, 159.200977, -70.783451, 179.608323, , , 0.000000, , , 
27908, , 10.588584, 0.524947, -5.777922, 2.207179, -1.399816, 1.971980, 1.750316, 5.666682, 4.632446, -0.735840, 0.458740, 0.406982, 0.104027, 0.008196, -0.060682, 0.999292, 0.008750, 0.028327, 0.023157, 165.206480, -74.737021, 174.394724, , , 0.000000, , , 
27909, , 12.486157, 0.756355, -6.534534, 3.381076, -1.008396, 3.848498, 2.129532, 5.762409, 4.731692, -0.732178, 0.497803, 0.365967, 0.122676, 0.011204, -0.068795, 0.999248, 0.010645, 0.028805, 0.023653, 175.302104, -78.466621, 165.278902, , , 0.000000, , , 
27910, , 13.806137, 1.100786, -6.805887, 4.529401, -0.233632, 4.933370, 2.509480, 5.898524, 4.717731, -0.730713, 0.543701, 0.303711, 0.135654, 0.015114, -0.071912, 0.999208, 0.012544, 0.029485, 0.023582, -166.049463, -81.690269, 147.838079, , , 0.000000, , , 
27911, , 15.189539, 1.582071, -7.305012, 6.085191, 0.703446, 5.964305, 2.774399, 5.939780, 4.596635, -0.722656, 0.585205, 0.250244, 0.149210, 0.020324, -0.077248, 0.999199, 0.013868, 0.029691, 0.022977, -133.642219, -83.376792, 116.775104, , , 0.000000, , , 
27912, , 16.783299, 1.981490, -8.399264, 8.338649, 1.532566, 7.042148, 3.043868, 5.963862, 4.430976, -0.708008, 0.622559, 0.192383, 0.164724, 0.024813, -0.088584, 0.999194, 0.015215, 0.029811, 0.022149, -97.278004, -82.507727, 81.925920, , , 0.000000, , , 
27913, , 17.964438, 3.264055, -9.392176, 10.831253, 3.308123, 7.307923, 3.404517, 5.940278, 4.213119, -0.690918, 0.659912, 0.130371, 0.175999, 0.038026, -0.098569, 0.999192, 0.017018, 0.029693, 0.021060, -74.457718, -79.810733, 60.819134, , , 0.000000, , , 
27914, , 19.825190, 6.221874, -10.241583, 13.604322, 6.938311, 7.599513, 3.515594, 5.874889, 3.823547, -0.664795, 0.692871, 0.074707, 0.193892, 0.067808, -0.106996, 0.999231, 0.017573, 0.029367, 0.019113, -61.383953, -76.471325, 49.539807, , , 0.000000, , , 
27915, , 21.153468, 8.522862, -12.164116, 17.096763, 9.648016, 6.993354, 2.930229, 5.672048, 3.321813, -0.649658, 0.712646, 0.027832, 0.206523, 0.090514, -0.126246, 0.999353, 0.014648, 0.028354, 0.016605, -53.382341, -73.109437, 42.993159, , , 0.000000, , , 
27916, , 20.601642, 8.406510, -14.403419, 19.969411, 9.534939, 4.769733, 2.006209, 5.253785, 2.847178, -0.634277, 0.728027, -0.016846, 0.200916, 0.088425, -0.148485, 0.999503, 0.010029, 0.026265, 0.014234, -48.294937, -69.921588, 38.852309, , , 0.000000, , , 
27917, , 17.479589, 4.580084, -16.177712, 20.990341, 5.210651, 1.157451, 0.982874, 4.633344, 2.573791, -0.607910, 0.741455, -0.044678, 0.170375, 0.048820, -0.165524, 0.999637, 0.004914, 0.023164, 0.012867, -45.365604, -67.026321, 36.311431, , , 0.000000, , , 
27918, , 14.458336, 2.076062, -16.358203, 20.367537, 2.302272, -2.020009, 0.717897, 3.842256, 2.459338, -0.592529, 0.754639, -0.068115, 0.141132, 0.023104, -0.166235, 0.999733, 0.003589, 0.019210, 0.012296, -43.741633, -64.463111, 34.984434, , , 0.000000, , , 
27919, , 12.521499, 4.764537, -16.775551, 20.565973, 4.474316, -5.586094, 0.928536, 3.343752, 2.262447, -0.572998, 0.770020, -0.089600, 0.121834, 0.049821, -0.169583, 0.999785, 0.004642, 0.016718, 0.011311, -42.475961, -62.175385, 34.165381, , , 0.000000, , , 
27920, , 9.493538, 9.024264, -16.540556, 19.577752, 7.847150, -10.308530, 0.429985, 2.826896, 1.818983, -0.557373, 0.774658, -0.104492, 0.091759, 0.091444, -0.166522, 0.999856, 0.002150, 0.014134, 0.009094, -41.663360, -60.282264, 33.514726, , , 0.000000, , , 
27921, , 6.487809, 9.501996, -16.891946, 18.661059, 7.324473, -13.789494, -0.611833, 1.898571, 1.327559, -0.546631, 0.789795, -0.096436, 0.062639, 0.094922, -0.169812, 0.999928, -0.003059, 0.009493, 0.006638, -41.738416, -58.960817, 33.197233, , , 0.000000, , , 
27922, , 4.057750, 9.756630, -16.582626, 17.358493, 6.724339, -16.145039, -1.212950, 0.826438, 0.722786, -0.542236, 0.789795, -0.087891, 0.039540, 0.096702, -0.166579, 0.999967, -0.006065, 0.004132, 0.003614, -42.422798, -58.353687, 33.173865, , , 0.000000, , , 
27923, , 3.273854, 10.263418, -16.120208, 16.736085, 6.792670, -16.860335, -1.886521, -0.322943, -0.005289, -0.544434, 0.789795, -0.072998, 0.033003, 0.101107, -0.162107, 0.999954, -0.009432, -0.001615, -0.000026, -43.696063, -58.487840, 33.401528, , , 0.000000, , , 
27924, , 3.796112, 8.300808, -17.444862, 18.155399, 4.477865, -15.972461, -2.309479, -1.408991, -0.678596, -0.551025, 0.785400, -0.041260, 0.039470, 0.080856, -0.175116, 0.999903, -0.011547, -0.007045, -0.003393, -45.511082, -59.369999, 33.959277, , , 0.000000, , , 
27925, , 6.249191, 5.946669, -17.116501, 18.788670, 2.749833, -12.415661, -2.446280, -2.321442, -1.206822, -0.559814, 0.774414, -0.007324, 0.064827, 0.056987, -0.171129, 0.999840, -0.012231, -0.011607, -0.006034, -47.757529, -60.783251, 34.935684, , , 0.000000, , , 
27926, , 10.046886, 3.234069, -12.458408, 15.707266, 2.282065, -5.985340, -2.455384, -2.954977, -1.564070, -0.568604, 0.767578, 0.028809, 0.102539, 0.030024, -0.123457, 0.999785, -0.012276, -0.014774, -0.007820, -50.476597, -62.614941, 36.402735, , , 0.000000, , , 
27927, , 21.878796, -5.962793, 11.566538, -3.929861, 4.027085, 15.012192, -5.066318, -2.648867, -1.178226, -0.572998, 0.758789, 0.088135, 0.216873, -0.057905, 0.120028, 0.999574, -0.025328, -0.013242, -0.005890, -54.958272, -64.069276, 38.170745, , , 0.000000, , , 
27928, , 18.343030, -24.015342, 11.855723, -10.751658, -12.352590, 18.209030, -6.571138, -1.899373, -0.292506, -0.570557, 0.751953, 0.138916, 0.181896, -0.236315, 0.128097, 0.999414, -0.032849, -0.009495, -0.001462, -60.494787, -64.841600, 40.109023, , , 0.000000, , , 
27929, , 10.178753, -20.520369, 4.434235, -6.605769, -13.729555, 7.856904, 0.447402, -1.413138, -0.603633, -0.579346, 0.749756, 0.111572, 0.100853, -0.205609, 0.044598, 0.999968, 0.002237, -0.007066, -0.003018, -61.392603, -65.535911, 41.382189, , , 0.000000, , , 
27930, , 13.453130, 9.537187, -1.237901, 7.640190, 11.783031, -1.083042, 6.731398, -1.182891, -1.730872, -0.590576, 0.749756, 0.096680, 0.135409, 0.094529, -0.008388, 0.999379, 0.033650, -0.005913, -0.008653, -57.769201, -66.771329, 41.614590, , , 0.000000, , , 
27931, , 16.970320, 9.866192, 1.099620, 6.021267, 13.788704, 2.841963, -1.423285, -3.239701, -1.340912, -0.592529, 0.736572, 0.130859, 0.170160, 0.097610, 0.013053, 0.999821, -0.007116, -0.016198, -0.006704, -61.510216, -68.371657, 44.780635, , , 0.000000, , , 
27932, , 20.981652, -4.647327, -15.330153, 18.342934, -3.605768, 8.823629, -0.757384, -3.038211, -1.285447, -0.596924, 0.732178, 0.145752, 0.211804, -0.048402, -0.149913, 0.999857, -0.003787, -0.015190, -0.006427, -65.210896, -69.855920, 48.252425, , , 0.000000, , , 
27933, , 17.552749, 1.391276, -10.068360, 13.628228, 2.737143, 4.957492, 1.913137, -2.672408, -1.451209, -0.592285, 0.729980, 0.149902, 0.176950, 0.013579, -0.098194, 0.999839, 0.009565, -0.013361, -0.007256, -67.111598, -71.235128, 51.432063, , , 0.000000, , , 
27934, , 13.890155, 0.072682, -10.867296, 12.915201, 0.454649, 2.187394, -0.421523, -3.135980, -1.084581, -0.600830, 0.710449, 0.171631, 0.140583, -0.000258, -0.106478, 0.999860, -0.002108, -0.015679, -0.005423, -71.936653, -72.494486, 56.224316, , , 0.000000, , , 
27935, , 15.702695, -2.923293, -3.666294, 5.200859, 0.178900, 5.726470, 0.861018, -2.721658, -1.130654, -0.607666, 0.714600, 0.173584, 0.157340, -0.029970, -0.034651, 0.999882, 0.004305, -0.013608, -0.005653, -75.740352, -73.551677, 60.718288, , , 0.000000, , , 
27936, , 9.296404, 0.921682, -2.648655, 3.942979, 2.444895, -1.282786, 1.533047, -2.045783, -1.137839, -0.612061, 0.712402, 0.179932, 0.093279, 0.008885, -0.025465, 0.999902, 0.007665, -0.010229, -0.005689, -78.508159, -74.493302, 64.477248, , , 0.000000, , , 
27937, , 7.193043, -2.186441, -4.233492, 4.350870, -1.363218, -2.487948, 0.484179, -2.274087, -0.925206, -0.611816, 0.705811, 0.190674, 0.072304, -0.022097, -0.041568, 0.999922, 0.002421, -0.011370, -0.004626, -82.640910, -75.231046, 69.047167, , , 0.000000, , , 
27938, , 7.571849, -2.555090, -5.150527, 5.064565, -1.812353, -1.973452, 1.417089, -1.783313, -0.811991, -0.611816, 0.705811, 0.188477, 0.076071, -0.025497, -0.051009, 0.999927, 0.007085, -0.008916, -0.004060, -85.797758, -75.835191, 73.111070, , , 0.000000, , , 
27939, , 8.210115, 3.751903, -2.227971, 3.465569, 4.988849, -2.773850, 1.003099, -1.530952, -0.675191, -0.612061, 0.705811, 0.201172, 0.082394, 0.037350, -0.021462, 0.999952, 0.005015, -0.007655, -0.003376, -88.652987, -76.265778, 76.646614, , , 0.000000, , , 
27940, , 10.367329, 2.252170, -3.491777, 4.357036, 3.791415, -0.253106, -0.613723, -1.410724, -0.427123, -0.609619, 0.697266, 0.207764, 0.103964, 0.022194, -0.034254, 0.999968, -0.003069, -0.007054, -0.002136, -92.605685, -76.533889, 80.315488, , , 0.000000, , , 
27941, , 12.026046, 4.111033, -1.539001, 2.774496, 6.333272, 0.961612, -0.666250, -1.120053, -0.299185, -0.609619, 0.699219, 0.218262, 0.120406, 0.040880, -0.014852, 0.999978, -0.003331, -0.005600, -0.001496, -95.703861, -76.660590, 83.109344, , , 0.000000, , , 
27942, , 13.213130, 5.346947, 0.240030, 1.239504, 8.148482, 1.819158, -1.620966, -1.089828, -0.154465, -0.607178, 0.688477, 0.235352, 0.132158, 0.053388, 0.002687, 0.999952, -0.008105, -0.005449, -0.000772, -99.568279, -76.694598, 86.088424, , , 0.000000, , , 
27943, , 13.477873, 1.732288, -0.986541, 1.517374, 4.506881, 2.954918, -2.334012, -1.078337, -0.059152, -0.611572, 0.686035, 0.256592, 0.134835, 0.017172, -0.009340, 0.999917, -0.011670, -0.005392, -0.000296, -103.465145, -76.607274, 88.720397, , , 0.000000, , , 
27944, , 12.275610, -3.148494, -1.372049, 0.476815, -0.455264, 2.917130, -2.313018, -0.993542, -0.027553, -0.600342, 0.677490, 0.277832, 0.122817, -0.031653, -0.012745, 0.999921, -0.011565, -0.004968, -0.000138, -107.384161, -76.498518, 91.347891, , , 0.000000, , , 
27945, , 10.300329, -6.211094, -1.287851, -0.632972, -3.732004, 1.676503, -1.495603, -0.931399, -0.062880, -0.602539, 0.673096, 0.290527, 0.103041, -0.062235, -0.011934, 0.999961, -0.007478, -0.004657, -0.000314, -110.363674, -76.363388, 93.532733, , , 0.000000, , , 
27946, , 9.146421, -5.064698, -1.519675, -0.214388, -2.985589, 0.319299, -0.231847, -0.887784, -0.157640, -0.600098, 0.670898, 0.299072, 0.091490, -0.050736, -0.014732, 0.999989, -0.001159, -0.004439, -0.000788, -112.856527, -76.280413, 95.922442, , , 0.000000, , , 
27947, , 9.215129, -3.369107, -2.311165, 0.952218, -1.610870, 0.092301, 0.059919, -0.833545, -0.330902, -0.595703, 0.666504, 0.299072, 0.092191, -0.033837, -0.022738, 0.999990, 0.000300, -0.004168, -0.001655, -114.908065, -76.264210, 98.070918, , , 0.000000, , , 
27948, , 9.518607, -2.443783, -2.444260, 1.248835, -0.730549, 0.210112, -0.185699, -0.698599, -0.399716, -0.604736, 0.670898, 0.301270, 0.095221, -0.024651, -0.024087, 0.999991, -0.000928, -0.003493, -0.001999, -117.180840, -76.307692, 100.262181, , , 0.000000, , , 
27949, , 9.620049, 0.129897, -3.150092, 2.607238, 1.468472, -0.141559, -0.610138, -0.518071, -0.371849, -0.602295, 0.662109, 0.313965, 0.096284, 0.001024, -0.031255, 0.999990, -0.003051, -0.002590, -0.001859, -119.005458, -76.359933, 101.781436, , , 0.000000, , , 
27950, , 9.484020, 1.315840, -1.597253, 1.430937, 2.938548, -0.672319, -1.823409, -0.508567, -0.267867, -0.595459, 0.653320, 0.337402, 0.094898, 0.012886, -0.015850, 0.999954, -0.009117, -0.002543, -0.001339, -121.692154, -76.354544, 103.432153, , , 0.000000, , , 
27951, , 9.330224, -2.096884, -2.329936, 0.963054, -0.516266, -0.030908, -2.499667, -0.546876, -0.193977, -0.601807, 0.642578, 0.350342, 0.093344, -0.021346, -0.022779, 0.999918, -0.012498, -0.002734, -0.000970, -124.439426, -76.281062, 104.786836, , , 0.000000, , , 
27952, , 9.407420, -2.987409, -1.804082, 0.026690, -1.180625, 0.151399, -1.927466, -0.524522, -0.272275, -0.599365, 0.631592, 0.361084, 0.094080, -0.030173, -0.017504, 0.999949, -0.009637, -0.002623, -0.001361, -127.200614, -76.238169, 106.453259, , , 0.000000, , , 
27953, , 8.994911, -2.874637, -1.149276, -0.628338, -0.969859, -0.370424, -1.672813, -0.535875, -0.389483, -0.599365, 0.631592, 0.375977, 0.089923, -0.029015, -0.011010, 0.999960, -0.008364, -0.002679, -0.001947, -129.696323, -76.226599, 108.037161, , , 0.000000, , , 
27954, , 8.752286, -3.528450, -1.329584, -0.814757, -1.705999, -0.472198, -1.455074, -0.600890, -0.513592, -0.608154, 0.620605, 0.390869, 0.087471, -0.035603, -0.012775, 0.999966, -0.007275, -0.003004, -0.002568, -132.659080, -76.223186, 110.190859, , , 0.000000, , , 
27955, , 8.979130, -3.363186, -0.903755, -1.275919, -1.377618, -0.366758, -1.185615, -0.636853, -0.635703, -0.601074, 0.607666, 0.395508, 0.089711, -0.033969, -0.008551, 0.999972, -0.005928, -0.003184, -0.003178, -135.433759, -76.236070, 112.349366, , , 0.000000, , , 
27956, , 9.128847, -3.840344, -1.902751, -0.706498, -2.184856, 0.007194, -1.250609, -0.726026, -0.700981, -0.603271, 0.598877, 0.408203, 0.091221, -0.038840, -0.018454, 0.999968, -0.006253, -0.003630, -0.003505, -138.777455, -76.200537, 115.017290, , , 0.000000, , , 
27957, , 9.085239, -3.360419, -2.135297, -0.430635, -1.892967, -0.085252, -1.148909, -0.778904, -0.735148, -0.600830, 0.590088, 0.418945, 0.090809, -0.034059, -0.020804, 0.999969, -0.005744, -0.003894, -0.003676, -141.903696, -76.130683, 117.560070, , , 0.000000, , , 
27958, , 9.041798, -3.296433, -2.862563, 0.104600, -2.177162, -0.011568, -1.151737, -0.833901, -0.758916, -0.607422, 0.581299, 0.434082, 0.090409, -0.033470, -0.028057, 0.999968, -0.005759, -0.004169, -0.003795, -145.375576, -75.992696, 120.421535, , , 0.000000, , , 
27959, , 8.721712, -2.642690, -2.879980, 0.302765, -1.714277, -0.415119, -1.018503, -0.842672, -0.784080, -0.609131, 0.566162, 0.444824, 0.087232, -0.026914, -0.028296, 0.999970, -0.005092, -0.004213, -0.003920, -148.506874, -75.838036, 123.049287, , , 0.000000, , , 
27960, , 8.545443, -2.276753, -3.290853, 0.708147, -1.641154, -0.547626, -0.966355, -0.919220, -0.795037, -0.600342, 0.561768, 0.453369, 0.085512, -0.023265, -0.032404, 0.999970, -0.004832, -0.004596, -0.003975, -151.882993, -75.589590, 125.926968, , , 0.000000, , , 
27961, , 8.436930, -2.250950, -2.665159, 0.047740, -1.422239, -0.794655, -0.935728, -1.004260, -0.824886, -0.602295, 0.552979, 0.472656, 0.084407, -0.022981, -0.026121, 0.999968, -0.004679, -0.005021, -0.004124, -155.036834, -75.290873, 128.632540, , , 0.000000, , , 
27962, , 8.123731, -4.018371, -2.720061, -0.815613, -3.108944, -0.912803, -1.075956, -1.124317, -0.871549, -0.602051, 0.546387, 0.474854, 0.081211, -0.040682, -0.026526, 0.999960, -0.005380, -0.005622, -0.004358, -158.547974, -74.871330, 131.594117, , , 0.000000, , , 
27963, , 7.884757, -5.982589, -3.233323, -1.401207, -5.136783, -0.864918, -0.843121, -1.244464, -0.889682, -0.601807, 0.533447, 0.496338, 0.078778, -0.060311, -0.031589, 0.999962, -0.004216, -0.006222, -0.004448, -161.658935, -74.379054, 134.320506, , , 0.000000, , , 
27964, , 8.503366, -6.085482, -2.580864, -2.302281, -4.851216, -0.476511, -0.359944, -1.316357, -0.945280, -0.597412, 0.531250, 0.498291, 0.084912, -0.061302, -0.025139, 0.999966, -0.001800, -0.006582, -0.004726, -164.633462, -73.783584, 137.167094, , , 0.000000, , , 
27965, , 9.622511, -3.663911, -2.808430, -1.353349, -2.636428, 0.440107, 0.059494, -1.332973, -1.053394, -0.594971, 0.522461, 0.502686, 0.096215, -0.037138, -0.027454, 0.999964, 0.000297, -0.006665, -0.005267, -167.205017, -73.194148, 139.885743, , , 0.000000, , , 
27966, , 10.930709, 1.866622, -2.275227, 0.294649, 2.681100, 1.181081, 0.442519, -1.274679, -1.208031, -0.601562, 0.518066, 0.511230, 0.109559, 0.018054, -0.022014, 0.999959, 0.002213, -0.006373, -0.006040, -169.776596, -72.581042, 142.811963, , , 0.000000, , , 
27967, , 11.338594, 5.574177, -0.402889, 0.110431, 6.789779, 0.849432, -0.569254, -1.348378, -1.242914, -0.594482, 0.500732, 0.522217, 0.113754, 0.055025, -0.003420, 0.999954, -0.002846, -0.006742, -0.006214, -172.675525, -71.930440, 145.514145, , , 0.000000, , , 
27968, , 11.012403, 4.141073, -1.283327, 0.085225, 5.011587, 0.908399, -1.472631, -1.546185, -1.255652, -0.596680, 0.491943, 0.537109, 0.110477, 0.040626, -0.012281, 0.999923, -0.007363, -0.007731, -0.006278, -176.053580, -71.081982, 148.155454, , , 0.000000, , , 
27969, , 10.407353, 3.985216, -1.357150, 0.047758, 4.659556, 0.400984, -1.056349, -1.572780, -1.433570, -0.587402, 0.474609, 0.556641, 0.104459, 0.039035, -0.012959, 0.999929, -0.005282, -0.007864, -0.007168, -179.110163, -70.220267, 150.754376, , , 0.000000, , , 
27970, , 11.162551, 1.291807, -0.499124, -2.398437, 2.722188, 0.834013, -1.439607, -1.781699, -1.523929, -0.586914, 0.457275, 0.569580, 0.111759, 0.012035, -0.004085, 0.999905, -0.007198, -0.008908, -0.007619, 177.623733, -69.148897, 153.324998, , , 0.000000, , , 
27971, , 12.004707, -1.495639, -2.339843, -2.778263, -0.503132, 2.180841, -0.745532, -1.755534, -1.694029, -0.580078, 0.441895, 0.582520, 0.120113, -0.016058, -0.022286, 0.999919, -0.003728, -0.008777, -0.008470, 174.884217, -68.085378, 155.809083, , , 0.000000, , , 
27972, , 12.240742, -1.196733, -0.996527, -4.100004, 0.319535, 1.820892, -0.100361, -1.878695, -1.832373, -0.575439, 0.439941, 0.588867, 0.122377, -0.013093, -0.008809, 0.999914, -0.000502, -0.009393, -0.009162, 172.499176, -66.859713, 158.296899, , , 0.000000, , , 
27973, , 13.216087, -0.150936, -1.229847, -4.089144, 1.169818, 2.761046, 0.028002, -2.018899, -2.023734, -0.574951, 0.420166, 0.604004, 0.132252, -0.002846, -0.010964, 0.999898, 0.000140, -0.010094, -0.010118, 170.301087, -65.545821, 160.717516, , , 0.000000, , , 
27974, , 13.318852, 0.338971, -1.582781, -3.993150, 1.333775, 2.925973, -0.051875, -2.147035, -2.212128, -0.570312, 0.411621, 0.612793, 0.133375, 0.001911, -0.014397, 0.999881, -0.000259, -0.010735, -0.011060, 168.040225, -64.059209, 163.152312, , , 0.000000, , , 
27975, , 13.859599, -0.428885, -1.298197, -5.191623, 0.716899, 3.089751, -0.275859, -2.311435, -2.384427, -0.561279, 0.400635, 0.627686, 0.138669, -0.005958, -0.011372, 0.999861, -0.001379, -0.011557, -0.011922, 165.828540, -62.463179, 165.452490, , , 0.000000, , , 
