PacketCounter, SampleTimeFine, Acc_X, Acc_Y, Acc_Z, FreeAcc_X, FreeAcc_Y, FreeAcc_Z, Gyr_X, Gyr_Y, Gyr_Z, Mag_X, Mag_Y, Mag_Z, VelInc_X, VelInc_Y, VelInc_Z, OriInc_q0, OriInc_q1, OriInc_q2, OriInc_q3, Roll, Pitch, Yaw, Latitude, Longitude, Altitude, Vel_X, Vel_Y, Vel_Z
01260, , 9.613859, -0.003303, -1.969900, -0.099672, -0.026743, 0.000373, 0.005607, 0.048032, 0.012899, -1.053711, 0.177246, 0.300293, 0.096134, -0.000026, -0.019722, 1.000000, 0.000028, 0.000240, 0.000064, 177.771531, -78.820546, 66.270630, , , 0.000000, , , 
01261, , 9.635478, 0.101730, -1.843201, 0.050461, 0.038644, -0.002176, 0.017131, 0.034868, 0.011838, -1.051758, 0.183838, 0.308838, 0.096352, 0.001025, -0.018449, 1.000000, 0.000086, 0.000174, 0.000059, 177.811774, -78.840771, 66.239615, , , 0.000000, , , 
01262, , 9.664187, 0.115859, -1.852438, 0.060663, 0.025382, 0.027899, 0.007936, 0.048138, 0.009592, -1.051758, 0.177246, 0.304688, 0.096637, 0.001164, -0.018548, 1.000000, 0.000040, 0.000241, 0.000048, 177.832910, -78.867876, 66.222269, , , 0.000000, , , 
01263, , 9.621027, 0.072883, -1.944744, -0.022231, -0.049610, 0.003042, 0.049037, 0.049402, -0.000460, -1.047363, 0.172852, 0.302490, 0.096205, 0.000733, -0.019471, 1.000000, 0.000245, 0.000247, -0.000002, 177.854247, -78.896152, 66.229157, , , 0.000000, , , 
01264, , 9.587107, 0.115696, -1.917827, 0.023395, -0.055598, -0.035140, 0.038895, 0.060916, -0.005072, -1.053711, 0.172852, 0.304688, 0.095865, 0.001158, -0.019207, 1.000000, 0.000194, 0.000305, -0.000025, 177.854766, -78.930910, 66.251327, , , 0.000000, , , 
01265, , 9.502037, -0.005163, -1.919985, -0.094972, -0.024097, -0.119109, 0.008209, 0.038680, -0.004340, -1.047363, 0.172852, 0.306885, 0.095017, -0.000053, -0.019218, 1.000000, 0.000041, 0.000193, -0.000022, 177.842498, -78.952963, 66.268619, , , 0.000000, , , 
01266, , 9.532654, 0.047702, -1.836764, -0.010568, 0.028880, -0.104623, 0.000632, 0.025438, 0.004567, -1.049316, 0.168457, 0.306885, 0.095324, 0.000479, -0.018380, 1.000000, 0.000003, 0.000127, 0.000023, 177.853613, -78.967369, 66.257670, , , 0.000000, , , 
01267, , 9.566223, 0.040352, -2.043586, -0.103623, -0.146610, -0.032183, 0.013105, 0.014028, 0.005885, -1.045166, 0.172852, 0.306885, 0.095661, 0.000408, -0.020443, 1.000000, 0.000066, 0.000070, 0.000029, 177.876875, -78.975526, 66.241620, , , 0.000000, , , 
01268, , 9.642741, 0.139786, -1.899523, 0.053960, -0.050458, 0.016083, 0.021200, 0.005491, 0.003472, -1.045166, 0.170654, 0.313232, 0.096427, 0.001402, -0.018998, 1.000000, 0.000106, 0.000027, 0.000017, 177.899803, -78.977967, 66.230680, , , 0.000000, , , 
01269, , 9.652252, 0.155176, -1.859806, 0.085348, -0.022183, 0.017936, -0.003890, 0.028831, 0.004591, -1.047363, 0.170654, 0.306885, 0.096520, 0.001554, -0.018612, 1.000000, -0.000019, 0.000144, 0.000023, 177.907975, -78.994571, 66.220084, , , 0.000000, , , 
01270, , 9.520509, 0.023731, -1.974255, -0.092836, -0.091182, -0.090476, 0.001886, 0.020179, 0.005477, -1.045166, 0.168457, 0.313232, 0.095203, 0.000240, -0.019752, 1.000000, 0.000009, 0.000101, 0.000027, 177.920604, -79.005435, 66.208230, , , 0.000000, , , 
01271, , 9.676533, 0.126518, -1.928585, 0.031404, -0.069968, 0.054676, 0.038794, 0.007719, 0.002956, -1.044922, 0.166260, 0.315430, 0.096765, 0.001270, -0.019289, 1.000000, 0.000194, 0.000039, 0.000015, 177.950727, -79.009916, 66.200187, , , 0.000000, , , 
01272, , 9.716286, 0.125153, -1.889275, 0.050073, -0.029174, 0.086195, -0.003214, 0.025034, 0.004802, -1.047119, 0.168457, 0.309082, 0.097160, 0.001254, -0.018905, 1.000000, -0.000016, 0.000125, 0.000024, 177.957804, -79.022668, 66.191007, , , 0.000000, , , 
01273, , 9.728109, 0.071776, -1.788623, 0.045055, 0.082313, 0.078300, 0.007168, 0.033292, -0.000138, -1.045166, 0.166260, 0.311035, 0.097278, 0.000718, -0.017902, 1.000000, 0.000036, 0.000166, -0.000001, 177.957997, -79.041728, 66.194993, , , 0.000000, , , 
01274, , 9.645361, -0.006930, -1.873125, -0.069843, 0.024610, 0.012594, 0.012047, 0.037244, -0.001314, -1.049316, 0.166260, 0.309082, 0.096450, -0.000069, -0.018749, 1.000000, 0.000060, 0.000186, -0.000007, 177.952458, -79.061910, 66.207496, , , 0.000000, , , 
01275, , 9.587865, 0.030937, -1.903705, -0.054109, -0.031715, -0.037808, 0.050592, 0.022730, -0.001241, -1.047119, 0.164062, 0.313232, 0.095876, 0.000314, -0.019048, 1.000000, 0.000253, 0.000114, -0.000006, 177.975372, -79.074900, 66.213682, , , 0.000000, , , 
01276, , 9.582828, 0.089816, -1.753279, 0.062677, 0.073012, -0.070850, 0.035993, 0.016815, -0.003807, -1.047119, 0.166260, 0.313232, 0.095827, 0.000899, -0.017541, 1.000000, 0.000180, 0.000084, -0.000019, 177.982346, -79.082990, 66.227561, , , 0.000000, , , 
01277, , 9.672164, 0.002069, -1.845461, -0.049641, 0.043291, 0.033741, 0.026943, 0.023602, -0.003763, -1.045166, 0.166260, 0.311035, 0.096719, 0.000021, -0.018466, 1.000000, 0.000135, 0.000118, -0.000019, 177.984137, -79.096428, 66.241459, , , 0.000000, , , 
01278, , 9.614351, 0.002915, -1.829677, -0.047156, 0.044595, -0.025999, 0.042230, 0.025712, -0.000977, -1.049316, 0.164062, 0.309082, 0.096141, 0.000033, -0.018309, 1.000000, 0.000211, 0.000129, -0.000005, 178.003529, -79.110535, 66.246379, , , 0.000000, , , 
01279, , 9.601045, 0.049972, -1.891787, -0.032356, -0.035006, -0.027027, 0.034296, 0.011094, 0.002999, -1.045166, 0.170654, 0.313232, 0.096009, 0.000504, -0.018923, 1.000000, 0.000171, 0.000055, 0.000015, 178.030964, -79.116947, 66.238451, , , 0.000000, , , 
01280, , 9.673141, 0.144235, -1.853905, 0.074358, -0.030934, 0.037233, 0.007496, 0.009598, -0.002346, -1.049316, 0.161865, 0.311279, 0.096731, 0.001442, -0.018544, 1.000000, 0.000037, 0.000048, -0.000012, 178.031235, -79.121639, 66.242693, , , 0.000000, , , 
01281, , 9.622736, 0.017195, -1.927540, -0.076332, -0.050994, 0.000790, -0.007236, 0.022704, -0.003689, -1.047119, 0.164062, 0.311279, 0.096225, 0.000169, -0.019286, 1.000000, -0.000036, 0.000114, -0.000018, 178.013753, -79.134567, 66.256273, , , 0.000000, , , 
01282, , 9.619503, 0.152165, -1.731067, 0.127891, 0.062514, -0.038521, 0.029182, 0.013492, -0.010142, -1.047119, 0.168457, 0.315430, 0.096194, 0.001519, -0.017317, 1.000000, 0.000146, 0.000067, -0.000051, 178.001180, -79.140732, 66.286186, , , 0.000000, , , 
01283, , 9.575258, 0.142978, -1.699865, 0.128822, 0.085787, -0.087894, 0.019902, 0.006465, -0.006612, -1.042969, 0.168457, 0.313232, 0.095752, 0.001428, -0.017002, 1.000000, 0.000100, 0.000032, -0.000033, 177.992167, -79.144301, 66.306975, , , 0.000000, , , 
01284, , 9.604259, 0.125650, -1.839252, 0.055112, -0.025971, -0.033285, 0.047281, 0.016578, -0.009473, -1.047119, 0.168457, 0.311035, 0.096041, 0.001256, -0.018400, 1.000000, 0.000236, 0.000083, -0.000047, 177.983501, -79.154385, 66.343171, , , 0.000000, , , 
01285, , 9.596897, 0.110357, -1.735751, 0.084456, 0.069685, -0.060075, 0.035583, 0.011778, -0.002171, -1.053467, 0.164062, 0.313232, 0.095968, 0.001106, -0.017363, 1.000000, 0.000178, 0.000059, -0.000011, 177.996165, -79.161084, 66.351035, , , 0.000000, , , 
01286, , 9.586054, 0.019160, -1.819049, -0.034727, 0.032458, -0.055666, 0.008076, 0.008134, -0.001649, -1.053711, 0.172852, 0.313232, 0.095860, 0.000192, -0.018194, 1.000000, 0.000040, 0.000041, -0.000008, 177.983933, -79.167366, 66.367806, , , 0.000000, , , 
01287, , 9.570218, -0.045015, -1.882201, -0.120597, 0.001570, -0.059778, 0.020259, -0.008815, -0.002409, -1.047119, 0.166260, 0.315430, 0.095703, -0.000449, -0.018818, 1.000000, 0.000101, -0.000044, -0.000012, 177.989260, -79.162271, 66.374201, , , 0.000000, , , 
01288, , 9.674690, 0.038031, -1.880590, -0.036750, -0.014253, 0.043079, 0.024217, -0.010754, -0.003126, -1.051514, 0.164062, 0.315430, 0.096748, 0.000381, -0.018801, 1.000000, 0.000121, -0.000054, -0.000016, 177.992561, -79.157275, 66.384885, , , 0.000000, , , 
01289, , 9.714075, 0.074489, -1.890858, -0.004808, -0.031305, 0.083935, 0.017131, -0.011201, -0.005227, -1.051270, 0.161865, 0.315430, 0.097142, 0.000744, -0.018903, 1.000000, 0.000086, -0.000056, -0.000026, 177.987939, -79.150755, 66.399585, , , 0.000000, , , 
01290, , 9.639180, 0.081302, -1.861473, 0.008775, -0.020312, 0.004898, 0.045164, -0.010827, -0.001766, -1.044922, 0.161865, 0.313232, 0.096393, 0.000816, -0.018609, 1.000000, 0.000226, -0.000054, -0.000009, 178.007268, -79.145105, 66.406097, , , 0.000000, , , 
01291, , 9.634168, 0.107538, -1.841470, 0.041651, -0.014089, -0.003618, 0.043480, -0.010592, -0.001058, -1.047119, 0.159668, 0.315430, 0.096343, 0.001079, -0.018409, 1.000000, 0.000217, -0.000053, -0.000005, 178.030089, -79.139017, 66.408225, , , 0.000000, , , 
01292, , 9.657649, 0.079050, -1.915085, -0.012455, -0.062023, 0.033123, 0.037005, -0.016635, 0.000361, -1.044922, 0.159668, 0.317627, 0.096578, 0.000794, -0.019143, 1.000000, 0.000185, -0.000083, 0.000002, 178.048963, -79.129874, 66.410356, , , 0.000000, , , 
01293, , 9.710501, 0.030327, -1.813995, -0.008628, 0.058076, 0.065666, 0.028678, 0.000712, 0.000866, -1.044922, 0.159668, 0.317627, 0.097105, 0.000306, -0.018140, 1.000000, 0.000143, 0.000004, 0.000004, 178.067847, -79.130295, 66.407854, , , 0.000000, , , 
01294, , 9.568920, 0.058968, -1.854162, -0.010704, -0.015439, -0.065622, 0.027564, 0.022105, -0.003114, -1.044922, 0.161865, 0.317627, 0.095687, 0.000591, -0.018552, 1.000000, 0.000138, 0.000111, -0.000016, 178.068261, -79.142991, 66.423285, , , 0.000000, , , 
01295, , 9.576754, 0.074141, -1.955085, -0.040053, -0.111093, -0.038838, 0.018545, 0.005610, -0.013443, -1.044922, 0.157471, 0.315430, 0.095767, 0.000737, -0.019553, 1.000000, 0.000093, 0.000028, -0.000067, 178.038092, -79.145932, 66.464816, , , 0.000000, , , 
01296, , 9.558029, 0.112844, -1.951117, -0.005717, -0.126705, -0.057718, 0.006790, -0.007580, -0.012479, -1.044922, 0.157471, 0.322021, 0.095581, 0.001123, -0.019508, 1.000000, 0.000034, -0.000038, -0.000062, 178.001960, -79.140235, 66.505407, , , 0.000000, , , 
01297, , 9.622372, 0.086893, -1.846454, 0.019715, -0.010213, -0.014397, 0.013629, -0.016812, -0.009679, -1.044922, 0.157471, 0.322021, 0.096225, 0.000866, -0.018456, 1.000000, 0.000068, -0.000084, -0.000048, 177.982553, -79.130402, 66.533112, , , 0.000000, , , 
01298, , 9.633864, 0.145168, -1.891273, 0.054585, -0.070897, 0.005730, 0.033377, -0.015771, -0.006441, -1.051270, 0.155273, 0.319824, 0.096340, 0.001452, -0.018905, 1.000000, 0.000167, -0.000079, -0.000032, 177.976975, -79.118799, 66.557908, , , 0.000000, , , 
01299, , 9.631566, 0.069797, -1.938963, -0.032775, -0.079727, 0.011980, 0.060574, -0.019494, -0.005813, -1.044922, 0.159668, 0.322021, 0.096318, 0.000701, -0.019380, 1.000000, 0.000303, -0.000097, -0.000029, 177.996296, -79.107499, 66.573566, , , 0.000000, , , 
01300, , 9.655946, 0.113300, -1.792770, 0.071080, 0.037633, 0.008600, 0.052338, -0.017034, -0.009318, -1.046875, 0.155273, 0.317627, 0.096561, 0.001133, -0.017919, 1.000000, 0.000262, -0.000085, -0.000047, 177.989817, -79.094299, 66.610305, , , 0.000000, , , 
01301, , 9.615952, 0.040268, -1.737551, 0.025828, 0.112232, -0.041609, 0.018276, -0.010011, -0.006634, -1.042725, 0.157471, 0.322021, 0.096160, 0.000401, -0.017371, 1.000000, 0.000091, -0.000050, -0.000033, 177.981493, -79.088411, 66.629435, , , 0.000000, , , 
01302, , 9.586179, 0.023748, -1.865580, -0.045478, 0.002072, -0.046741, 0.017317, -0.011767, -0.008981, -1.044922, 0.157471, 0.322021, 0.095863, 0.000235, -0.018650, 1.000000, 0.000087, -0.000059, -0.000045, 177.955206, -79.080267, 66.665943, , , 0.000000, , , 
01303, , 9.639393, 0.050269, -1.859221, -0.015032, 0.007086, 0.004484, 0.018687, -0.013428, -0.014627, -1.049316, 0.164062, 0.326172, 0.096395, 0.000497, -0.018586, 1.000000, 0.000093, -0.000067, -0.000073, 177.923810, -79.072255, 66.708811, , , 0.000000, , , 
01304, , 9.622899, 0.093899, -1.890615, 0.009468, -0.040323, -0.005460, 0.013129, -0.013579, -0.013669, -1.051514, 0.164062, 0.328369, 0.096230, 0.000934, -0.018900, 1.000000, 0.000066, -0.000068, -0.000068, 177.886207, -79.062724, 66.754466, , , 0.000000, , , 
01305, , 9.640726, 0.127068, -1.816583, 0.072242, 0.016234, -0.001763, 0.035972, -0.024498, -0.007861, -1.036377, 0.157471, 0.319824, 0.096410, 0.001270, -0.018154, 1.000000, 0.000180, -0.000122, -0.000039, 177.886099, -79.048506, 66.775557, , , 0.000000, , , 
01306, , 9.674373, 0.224149, -1.680299, 0.220675, 0.103982, 0.006051, 0.031378, -0.022895, -0.004556, -1.046875, 0.155273, 0.324219, 0.096746, 0.002242, -0.016792, 1.000000, 0.000157, -0.000114, -0.000023, 177.883394, -79.034139, 66.796239, , , 0.000000, , , 
01307, , 9.644134, 0.170291, -1.762488, 0.136293, 0.051043, -0.008428, 0.018759, -0.027623, -0.002862, -1.049316, 0.161865, 0.319824, 0.096444, 0.001703, -0.017611, 1.000000, 0.000094, -0.000138, -0.000014, 177.888594, -79.018235, 66.801881, , , 0.000000, , , 
01308, , 9.690507, 0.221078, -1.877026, 0.138089, -0.061616, 0.059251, 0.028772, -0.028545, -0.003369, -1.049316, 0.161865, 0.322021, 0.096908, 0.002212, -0.018756, 1.000000, 0.000144, -0.000143, -0.000017, 177.875715, -79.003447, 66.830993, , , 0.000000, , , 
01309, , 9.622930, 0.098750, -1.936933, -0.001319, -0.071849, 0.003476, 0.014362, -0.030693, -0.000491, -1.051514, 0.164062, 0.324219, 0.096232, 0.000989, -0.019354, 1.000000, 0.000072, -0.000153, -0.000002, 177.885721, -78.985839, 66.829173, , , 0.000000, , , 
01310, , 9.643332, -0.007960, -1.883539, -0.072983, 0.027416, 0.012564, 0.048750, -0.032187, -0.001101, -1.051514, 0.166260, 0.326172, 0.096436, -0.000076, -0.018820, 1.000000, 0.000244, -0.000161, -0.000006, 177.886269, -78.968252, 66.856096, , , 0.000000, , , 
01311, , 9.611933, 0.041990, -1.759607, 0.023618, 0.113455, -0.041617, 0.014088, -0.036253, -0.002594, -1.053467, 0.166260, 0.324219, 0.096123, 0.000420, -0.017579, 1.000000, 0.000070, -0.000181, -0.000013, 177.890548, -78.947418, 66.859951, , , 0.000000, , , 
01312, , 9.697794, -0.087642, -1.775033, -0.092989, 0.173190, 0.044645, 0.015109, -0.032706, -0.003545, -1.049316, 0.164062, 0.326172, 0.096981, -0.000877, -0.017735, 1.000000, 0.000076, -0.000164, -0.000018, 177.872024, -78.930287, 66.886907, , , 0.000000, , , 
01313, , 9.752771, 0.049550, -1.772300, 0.038114, 0.129496, 0.099014, 0.049158, -0.028987, 0.000521, -1.053711, 0.170654, 0.326172, 0.097530, 0.000500, -0.017709, 1.000000, 0.000246, -0.000145, 0.000003, 177.904767, -78.913678, 66.882235, , , 0.000000, , , 
01314, , 9.745470, 0.110066, -1.941715, 0.022985, -0.046189, 0.124812, 0.042390, -0.028016, 0.003371, -1.053711, 0.175049, 0.328369, 0.097457, 0.001106, -0.019403, 1.000000, 0.000212, -0.000140, 0.000017, 177.931234, -78.901302, 66.879632, , , 0.000000, , , 
01315, , 9.800722, 0.136803, -1.795636, 0.114162, 0.082753, 0.151111, 0.037491, -0.000903, 0.005457, -1.051514, 0.172852, 0.330566, 0.098007, 0.001374, -0.017956, 1.000000, 0.000187, -0.000005, 0.000027, 177.968691, -78.900874, 66.863346, , , 0.000000, , , 
01316, , 9.654614, 0.157299, -1.941100, 0.060669, -0.083314, 0.035843, 0.017922, 0.032884, 0.008537, -1.058105, 0.177246, 0.330566, 0.096543, 0.001579, -0.019427, 1.000000, 0.000090, 0.000164, 0.000043, 177.988421, -78.923704, 66.853385, , , 0.000000, , , 
01317, , 9.555336, 0.119075, -2.055829, -0.029544, -0.188981, -0.039844, -0.000742, 0.014574, 0.006553, -1.047363, 0.175049, 0.330566, 0.095552, 0.001194, -0.020565, 1.000000, -0.000004, 0.000073, 0.000033, 178.005716, -78.932152, 66.835326, , , 0.000000, , , 
01318, , 9.557449, 0.120459, -1.915139, 0.030607, -0.065082, -0.064769, 0.031546, -0.004270, 0.004795, -1.051514, 0.177246, 0.330566, 0.095575, 0.001210, -0.019149, 1.000000, 0.000158, -0.000021, 0.000024, 178.021909, -78.931324, 66.836768, , , 0.000000, , , 
01319, , 9.528956, 0.138242, -1.775882, 0.104135, 0.046624, -0.119346, 0.048210, -0.018208, 0.001691, -1.051758, 0.181641, 0.332764, 0.095291, 0.001388, -0.017750, 1.000000, 0.000241, -0.000091, 0.000008, 178.056411, -78.920896, 66.829759, , , 0.000000, , , 
01320, , 9.556551, 0.189160, -1.838618, 0.127088, -0.024359, -0.079896, 0.037332, -0.021383, -0.000599, -1.055908, 0.181641, 0.334717, 0.095567, 0.001895, -0.018376, 1.000000, 0.000187, -0.000107, -0.000003, 178.059289, -78.910189, 66.848014, , , 0.000000, , , 
01321, , 9.621516, 0.128332, -1.861832, 0.068662, -0.006124, -0.012090, 0.016660, -0.019855, 0.003027, -1.056152, 0.188232, 0.330322, 0.096217, 0.001286, -0.018609, 1.000000, 0.000083, -0.000099, 0.000015, 178.079818, -78.898836, 66.836827, , , 0.000000, , , 
01322, , 9.684219, 0.135989, -1.945076, 0.045758, -0.071118, 0.065509, 0.013078, -0.008771, -0.000748, -1.049561, 0.183838, 0.332520, 0.096843, 0.001361, -0.019446, 1.000000, 0.000065, -0.000044, -0.000004, 178.062175, -78.895855, 66.861794, , , 0.000000, , , 
01323, , 9.660895, 0.093578, -1.953233, 0.002573, -0.063899, 0.043918, -0.004790, -0.006275, 0.000749, -1.051758, 0.183838, 0.328369, 0.096610, 0.000936, -0.019529, 1.000000, -0.000024, -0.000031, 0.000004, 178.062524, -78.892233, 66.858651, , , 0.000000, , , 
01324, , 9.737875, 0.054700, -1.970444, -0.035126, -0.049107, 0.122513, -0.039903, 0.011621, 0.004643, -1.060303, 0.183838, 0.326172, 0.097378, 0.000545, -0.019710, 1.000000, -0.000200, 0.000058, 0.000023, 178.026517, -78.900022, 66.871253, , , 0.000000, , , 
01325, , 9.626773, -0.040192, -2.042166, -0.160207, -0.093624, 0.026641, -0.023008, 0.019933, 0.004296, -1.058105, 0.186035, 0.328369, 0.096266, -0.000402, -0.020431, 1.000000, -0.000115, 0.000100, 0.000021, 178.024214, -78.911478, 66.860179, , , 0.000000, , , 
01326, , 9.649931, 0.036143, -1.906394, -0.033838, -0.002345, 0.023758, -0.001508, 0.008141, 0.003277, -1.058105, 0.183838, 0.328369, 0.096499, 0.000363, -0.019068, 1.000000, -0.000008, 0.000041, 0.000016, 178.010666, -78.916528, 66.872773, , , 0.000000, , , 
01327, , 9.596306, 0.081071, -1.833352, 0.032917, 0.033362, -0.042598, -0.032434, 0.006832, 0.002026, -1.055908, 0.181641, 0.323975, 0.095962, 0.000809, -0.018337, 1.000000, -0.000162, 0.000034, 0.000010, 177.997676, -78.920453, 66.867091, , , 0.000000, , , 
01328, , 9.559485, -0.057682, -1.889834, -0.119839, 0.035560, -0.068822, -0.024014, -0.002109, 0.007882, -1.055908, 0.183838, 0.326172, 0.095595, -0.000575, -0.018897, 1.000000, -0.000120, -0.000011, 0.000039, 177.987667, -78.919660, 66.862805, , , 0.000000, , , 
01329, , 9.491411, 0.104609, -1.802664, 0.058876, 0.032381, -0.151274, -0.017669, -0.008103, 0.006689, -1.058105, 0.186035, 0.326172, 0.094915, 0.001048, -0.018023, 1.000000, -0.000088, -0.000041, 0.000033, 177.998284, -78.915136, 66.841688, , , 0.000000, , , 
01330, , 9.508087, 0.030676, -2.075075, -0.120525, -0.173878, -0.083051, -0.035998, -0.019063, 0.003514, -1.062500, 0.186279, 0.319580, 0.095083, 0.000305, -0.020742, 1.000000, -0.000180, -0.000095, 0.000018, 177.976968, -78.904728, 66.842198, , , 0.000000, , , 
01331, , 9.568159, 0.033899, -2.125176, -0.132782, -0.206973, -0.014385, 0.029818, -0.030961, 0.001792, -1.060303, 0.184082, 0.321777, 0.095685, 0.000343, -0.021237, 1.000000, 0.000149, -0.000155, 0.000009, 178.002839, -78.887025, 66.833266, , , 0.000000, , , 
01332, , 9.646043, 0.210284, -1.941231, 0.111781, -0.101767, 0.027835, 0.031034, -0.038013, 0.006031, -1.055908, 0.181641, 0.321777, 0.096464, 0.002109, -0.019394, 1.000000, 0.000155, -0.000190, 0.000030, 178.031607, -78.864356, 66.822568, , , 0.000000, , , 
01333, , 9.761879, 0.206817, -1.971496, 0.106830, -0.104186, 0.147312, -0.037208, -0.023856, 0.011541, -1.066650, 0.177490, 0.317627, 0.097621, 0.002070, -0.019704, 1.000000, -0.000186, -0.000119, 0.000058, 178.046617, -78.850945, 66.785570, , , 0.000000, , , 
01334, , 9.778061, 0.129765, -2.069872, -0.002276, -0.154187, 0.181707, -0.024486, -0.008912, 0.012849, -1.062500, 0.186279, 0.319580, 0.097781, 0.001301, -0.020695, 1.000000, -0.000122, -0.000045, 0.000064, 178.046132, -78.844747, 66.771449, , , 0.000000, , , 
01335, , 9.731748, 0.008162, -2.037083, -0.101956, -0.082234, 0.129120, -0.003446, 0.017195, 0.002101, -1.060059, 0.177490, 0.319580, 0.097316, 0.000082, -0.020379, 1.000000, -0.000017, 0.000086, 0.000011, 178.048832, -78.854691, 66.766712, , , 0.000000, , , 
01336, , 9.587872, -0.077693, -1.899515, -0.134307, 0.049349, -0.039203, 0.006712, 0.028289, 0.001317, -1.060303, 0.181885, 0.321777, 0.095876, -0.000776, -0.019009, 1.000000, 0.000034, 0.000141, 0.000007, 178.034468, -78.868332, 66.785344, , , 0.000000, , , 
01337, , 9.522914, -0.054343, -1.829158, -0.089144, 0.088635, -0.116355, 0.015771, 0.007105, 0.001076, -1.062256, 0.175293, 0.319580, 0.095228, -0.000541, -0.018295, 1.000000, 0.000079, 0.000036, 0.000005, 178.046153, -78.872511, 66.782675, , , 0.000000, , , 
01338, , 9.513491, -0.000677, -1.787284, -0.023656, 0.101688, -0.133329, 0.018388, -0.005745, 0.002500, -1.058105, 0.175049, 0.319824, 0.095135, -0.000004, -0.017870, 1.000000, 0.000092, -0.000029, 0.000012, 178.049081, -78.866624, 66.790237, , , 0.000000, , , 
01339, , 9.506254, 0.057577, -1.780493, 0.032319, 0.082230, -0.141362, 0.034751, -0.012674, 0.000781, -1.060059, 0.173096, 0.319824, 0.095064, 0.000579, -0.017799, 1.000000, 0.000174, -0.000063, 0.000004, 178.072587, -78.859491, 66.786598, , , 0.000000, , , 
01340, , 9.564163, 0.128504, -1.890430, 0.055947, -0.033575, -0.062857, 0.028853, -0.020164, 0.002946, -1.062256, 0.179688, 0.317627, 0.095644, 0.001289, -0.018894, 1.000000, 0.000144, -0.000101, 0.000015, 178.079832, -78.846599, 66.795700, , , 0.000000, , , 
01341, , 9.582285, 0.236204, -2.086324, 0.074767, -0.247926, -0.006482, 0.006017, -0.031839, 0.002631, -1.058105, 0.177246, 0.323975, 0.095826, 0.002364, -0.020848, 1.000000, 0.000030, -0.000159, 0.000013, 178.093791, -78.828545, 66.784998, , , 0.000000, , , 
01342, , 9.663069, 0.166671, -1.953934, 0.075184, -0.083106, 0.046723, 0.023739, -0.039715, 0.011010, -1.064453, 0.173096, 0.323975, 0.096634, 0.001674, -0.019520, 1.000000, 0.000119, -0.000199, 0.000055, 178.126059, -78.803711, 66.765729, , , 0.000000, , , 
01343, , 9.639016, 0.297809, -1.678549, 0.310136, 0.103784, -0.029544, 0.012409, -0.028661, 0.023507, -1.060059, 0.175293, 0.323975, 0.096392, 0.002990, -0.016771, 1.000000, 0.000062, -0.000143, 0.000118, 178.203456, -78.787875, 66.694085, , , 0.000000, , , 
01344, , 9.769043, 0.248144, -1.818259, 0.218798, 0.026043, 0.124782, -0.046695, -0.019497, 0.025723, -1.062256, 0.173096, 0.326172, 0.097692, 0.002490, -0.018174, 1.000000, -0.000233, -0.000097, 0.000129, 178.215402, -78.774992, 66.652883, , , 0.000000, , , 
01345, , 9.815581, 0.048226, -2.122332, -0.083490, -0.151253, 0.228349, -0.026228, 0.008789, 0.029994, -1.060059, 0.170898, 0.319824, 0.098155, 0.000494, -0.021228, 1.000000, -0.000131, 0.000044, 0.000150, 178.285520, -78.780696, 66.566068, , , 0.000000, , , 
01346, , 9.708869, -0.114999, -1.993328, -0.185446, 0.012173, 0.097619, 0.010309, 0.017925, 0.020816, -1.057861, 0.170654, 0.326172, 0.097087, -0.001139, -0.019942, 1.000000, 0.000052, 0.000090, 0.000104, 178.304599, -78.789611, 66.550892, , , 0.000000, , , 
01347, , 9.711241, -0.044094, -1.773314, -0.027572, 0.176799, 0.057610, -0.011799, -0.014245, 0.020084, -1.053711, 0.168457, 0.323975, 0.097114, -0.000432, -0.017726, 1.000000, -0.000059, -0.000071, 0.000100, 178.355972, -78.781944, 66.491594, , , 0.000000, , , 
01348, , 9.736593, -0.140011, -1.960287, -0.189500, 0.057297, 0.118293, -0.014847, -0.006401, 0.020319, -1.057861, 0.161865, 0.328369, 0.097367, -0.001392, -0.019600, 1.000000, -0.000074, -0.000032, 0.000102, 178.366975, -78.775544, 66.469041, , , 0.000000, , , 
01349, , 9.620289, 0.004932, -1.947607, -0.060764, -0.014723, 0.002569, 0.024106, 0.013051, 0.010871, -1.060059, 0.166504, 0.323975, 0.096202, 0.000057, -0.019482, 1.000000, 0.000121, 0.000065, 0.000054, 178.409526, -78.783323, 66.439676, , , 0.000000, , , 
01350, , 9.471622, 0.091774, -1.979157, -0.007893, -0.106610, -0.136651, 0.017087, 0.016199, 0.002209, -1.057861, 0.161865, 0.328369, 0.094715, 0.000920, -0.019799, 1.000000, 0.000085, 0.000081, 0.000011, 178.370904, -78.789237, 66.485443, , , 0.000000, , , 
01351, , 9.457766, 0.172908, -1.916116, 0.090699, -0.087948, -0.162051, 0.018196, -0.007740, -0.006202, -1.051514, 0.166260, 0.330566, 0.094578, 0.001728, -0.019157, 1.000000, 0.000091, -0.000039, -0.000031, 178.361650, -78.784804, 66.505388, , , 0.000000, , , 
01352, , 9.573899, 0.240444, -1.865371, 0.181787, -0.047938, -0.057606, 0.015056, -0.021978, 0.003254, -1.057861, 0.166260, 0.328369, 0.095741, 0.002407, -0.018643, 1.000000, 0.000075, -0.000110, 0.000016, 178.332731, -78.765761, 66.538475, , , 0.000000, , , 
01353, , 9.666673, 0.194168, -1.901912, 0.133457, -0.043013, 0.040225, 0.009400, -0.013121, 0.014313, -1.055664, 0.164062, 0.334961, 0.096668, 0.001949, -0.019013, 1.000000, 0.000047, -0.000066, 0.000072, 178.377359, -78.758509, 66.498295, , , 0.000000, , , 
01354, , 9.722640, 0.184093, -1.707166, 0.210246, 0.145110, 0.057104, -0.008797, 0.013123, 0.017884, -1.051514, 0.166260, 0.328369, 0.097225, 0.001849, -0.017078, 1.000000, -0.000044, 0.000066, 0.000089, 178.373625, -78.759999, 66.491611, , , 0.000000, , , 
01355, , 9.690327, 0.050525, -1.655762, 0.109002, 0.239161, 0.014696, -0.003852, 0.025498, 0.022992, -1.055664, 0.164062, 0.328369, 0.096901, 0.000516, -0.016570, 1.000000, -0.000019, 0.000127, 0.000115, 178.432010, -78.774922, 66.429619, , , 0.000000, , , 
01356, , 9.728079, 0.150708, -1.549443, 0.246715, 0.295545, 0.031641, -0.025387, 0.022955, 0.023833, -1.057617, 0.157471, 0.332764, 0.097279, 0.001517, -0.015506, 1.000000, -0.000127, 0.000115, 0.000119, 178.443231, -78.786630, 66.400515, , , 0.000000, , , 
01357, , 9.688744, -0.028413, -1.696552, 0.020390, 0.231232, 0.020774, -0.082625, 0.025445, 0.027688, -1.051270, 0.159668, 0.326416, 0.096885, -0.000278, -0.016978, 1.000000, -0.000413, 0.000127, 0.000138, 178.469851, -78.801546, 66.324868, , , 0.000000, , , 
01358, , 9.754149, -0.094336, -1.541164, 0.030841, 0.405988, 0.054517, 0.040452, 0.024218, 0.041317, -1.055664, 0.164062, 0.330566, 0.097540, -0.000920, -0.015424, 1.000000, 0.000202, 0.000121, 0.000207, 178.557433, -78.816215, 66.255610, , , 0.000000, , , 
01359, , 9.915594, 0.364442, -0.992082, 0.691517, 0.722938, 0.108765, 0.017043, 0.020675, 0.049915, -1.059814, 0.159912, 0.332764, 0.099154, 0.003670, -0.009931, 1.000000, 0.000085, 0.000103, 0.000250, 178.705746, -78.828620, 66.114094, , , 0.000000, , , 
01360, , 10.282015, 0.451093, -1.054107, 0.773758, 0.689168, 0.481038, -0.043409, 0.070910, 0.052948, -1.053467, 0.155273, 0.328613, 0.102815, 0.004536, -0.010579, 1.000000, -0.000217, 0.000355, 0.000265, 178.791454, -78.874925, 65.997813, , , 0.000000, , , 
01361, , 10.421140, 0.446089, -1.154026, 0.737542, 0.613447, 0.637701, -0.048419, 0.169454, 0.058618, -1.057617, 0.153076, 0.337158, 0.104200, 0.004489, -0.011630, 1.000000, -0.000242, 0.000847, 0.000293, 178.920295, -78.972518, 65.837948, , , 0.000000, , , 
01362, , 10.453804, 0.423971, -1.133800, 0.722168, 0.624617, 0.667558, -0.082970, 0.215460, 0.059109, -1.049072, 0.153076, 0.332764, 0.104524, 0.004266, -0.011452, 0.999999, -0.000415, 0.001077, 0.000296, 178.980796, -79.107626, 65.723591, , , 0.000000, , , 
01363, , 10.540929, 0.356237, -0.866458, 0.773771, 0.881012, 0.704626, -0.151544, 0.254173, 0.062023, -1.046875, 0.148682, 0.334961, 0.105397, 0.003588, -0.008801, 0.999999, -0.000758, 0.001271, 0.000310, 179.061380, -79.253668, 65.552814, , , 0.000000, , , 
01364, , 10.439408, -0.014495, -0.843480, 0.429897, 1.011279, 0.602941, -0.216445, 0.315513, 0.073726, -1.048828, 0.144287, 0.337158, 0.104381, -0.000116, -0.008599, 0.999998, -0.001082, 0.001578, 0.000369, 179.095138, -79.452613, 65.388804, , , 0.000000, , , 
01365, , 9.971716, -0.121023, -0.844718, 0.289053, 0.945449, 0.146519, -0.115299, 0.339983, 0.083481, -1.042480, 0.139893, 0.335205, 0.099703, -0.001174, -0.008616, 0.999998, -0.000576, 0.001700, 0.000417, 179.267530, -79.647885, 65.145988, , , 0.000000, , , 
01366, , 9.754909, 0.188441, -0.644783, 0.626474, 0.918376, -0.098083, -0.058806, 0.318766, 0.076915, -1.042480, 0.135498, 0.339355, 0.097538, 0.001920, -0.006604, 0.999999, -0.000294, 0.001594, 0.000385, 179.423936, -79.855027, 64.950904, , , 0.000000, , , 
01367, , 9.704392, 0.301376, -0.496711, 0.780621, 0.962932, -0.170276, -0.047199, 0.299287, 0.070068, -1.040039, 0.126709, 0.337402, 0.097035, 0.003047, -0.005113, 0.999999, -0.000236, 0.001496, 0.000350, 179.609026, -80.026658, 64.735116, , , 0.000000, , , 
01368, , 9.928786, 0.305159, -0.427619, 0.819236, 1.024187, 0.043102, 0.001440, 0.311035, 0.057319, -1.037842, 0.124512, 0.337402, 0.099280, 0.003080, -0.004431, 0.999999, 0.000007, 0.001555, 0.000287, 179.745055, -80.234767, 64.596216, , , 0.000000, , , 
01369, , 10.076059, 0.456696, -0.305201, 1.008618, 1.057967, 0.171899, 0.045762, 0.359731, 0.037785, -1.037842, 0.122314, 0.341797, 0.100754, 0.004587, -0.003232, 0.999998, 0.000229, 0.001799, 0.000189, 179.888291, -80.440774, 64.477173, , , 0.000000, , , 
01370, , 10.276254, 0.566196, -0.105661, 1.187768, 1.174914, 0.343185, 0.025097, 0.451642, 0.023816, -1.031250, 0.108887, 0.339600, 0.102759, 0.005674, -0.001288, 0.999997, 0.000125, 0.002258, 0.000119, 179.922120, -80.735283, 64.455605, , , 0.000000, , , 
01371, , 10.183736, 0.440881, 0.110079, 1.140298, 1.362343, 0.225165, 0.011253, 0.532665, 0.007678, -1.031250, 0.104492, 0.341797, 0.101840, 0.004413, 0.000830, 0.999996, 0.000056, 0.002663, 0.000038, 179.947181, -81.040319, 64.436411, , , 0.000000, , , 
01372, , 10.507146, 0.760043, 0.635568, 1.644383, 1.680008, 0.475898, -0.015336, 0.595055, -0.003555, -1.024414, 0.084717, 0.335449, 0.105090, 0.007599, 0.006042, 0.999996, -0.000077, 0.002975, -0.000018, 179.840961, -81.424106, 64.532875, , , 0.000000, , , 
01373, , 10.930069, 1.041616, 0.938704, 2.024417, 1.820657, 0.865276, -0.248670, 0.744224, -0.007215, -1.017822, 0.073730, 0.335693, 0.109335, 0.010424, 0.008967, 0.999992, -0.001243, 0.003721, -0.000036, 179.650257, -81.850332, 64.581276, , , 0.000000, , , 
01374, , 10.964802, 1.010317, 1.052882, 2.002904, 1.847232, 0.907916, -0.524880, 0.928223, -0.000387, -1.015625, 0.064941, 0.320557, 0.109695, 0.010130, 0.009993, 0.999986, -0.002624, 0.004641, -0.000002, 179.186182, -82.435433, 64.743574, , , 0.000000, , , 
01375, , 10.930219, 0.534231, 1.531941, 1.740133, 2.376045, 0.837527, -0.719249, 1.061128, -0.008202, -1.008789, 0.042969, 0.316406, 0.109382, 0.005391, 0.014720, 0.999979, -0.003596, 0.005306, -0.000041, 178.638318, -83.043049, 64.880089, , , 0.000000, , , 
01376, , 10.906037, 0.315024, 2.171355, 1.774365, 2.914746, 0.775515, -0.773537, 1.184878, -0.008317, -1.006348, 0.025391, 0.305664, 0.109187, 0.003228, 0.021055, 0.999975, -0.003868, 0.005924, -0.000042, 177.792109, -83.785836, 65.283081, , , 0.000000, , , 
01377, , 11.185781, 0.919648, 2.998686, 2.654215, 3.269618, 1.014231, -0.803204, 1.302388, 0.009626, -0.999756, 0.001221, 0.295166, 0.112049, 0.009320, 0.029220, 0.999971, -0.004016, 0.006512, 0.000048, 177.047141, -84.531361, 65.568979, , , 0.000000, , , 
01378, , 11.521970, 1.334922, 3.597630, 3.252188, 3.462923, 1.363574, -0.958198, 1.528719, 0.045160, -0.990723, -0.020752, 0.278076, 0.115487, 0.013545, 0.035030, 0.999959, -0.004791, 0.007643, 0.000226, 175.901293, -85.486810, 66.165609, , , 0.000000, , , 
01379, , 11.508628, 1.264596, 3.519508, 3.095649, 3.230818, 1.430484, -0.988398, 1.805953, 0.070891, -0.986084, -0.047119, 0.262939, 0.115393, 0.012857, 0.034091, 0.999947, -0.004942, 0.009030, 0.000354, 174.684047, -86.521197, 66.817747, , , 0.000000, , , 
01380, , 11.221842, 0.991083, 3.212494, 2.617378, 2.840559, 1.246568, -0.941526, 2.098263, 0.107866, -0.981445, -0.075684, 0.230957, 0.112541, 0.010119, 0.030898, 0.999934, -0.004708, 0.010491, 0.000539, 171.848230, -87.818178, 69.114664, , , 0.000000, , , 
01381, , 10.731844, 0.298218, 2.636110, 1.639341, 2.418288, 0.848873, -0.877778, 2.391305, 0.147778, -0.974609, -0.097656, 0.200684, 0.107621, 0.003174, 0.025062, 0.999919, -0.004389, 0.011956, 0.000739, 163.138623, -89.177278, 77.323212, , , 0.000000, , , 
01382, , 10.092400, -0.691417, 1.724880, 0.215085, 1.843526, 0.279819, -0.700495, 2.708935, 0.194129, -0.970215, -0.115234, 0.168457, 0.101152, -0.006759, 0.015904, 0.999902, -0.003502, 0.013544, 0.000971, 9.675508, -89.112067, -129.613017, , , 0.000000, , , 
01383, , 9.129231, -1.793982, 0.882116, -1.260155, 1.428594, -0.663674, -0.432212, 3.001619, 0.243601, -0.961426, -0.130615, 0.140381, 0.091433, -0.017811, 0.007488, 0.999884, -0.002161, 0.015008, 0.001218, 0.071723, -87.404643, -120.253963, , , 0.000000, , , 
01384, , 8.081939, -2.846445, 0.504816, -2.452760, 1.424313, -1.711771, -0.123678, 3.126312, 0.299234, -0.958984, -0.150391, 0.108154, 0.080928, -0.028341, 0.003801, 0.999877, -0.000618, 0.015631, 0.001496, -2.024793, -85.503271, -118.224261, , , 0.000000, , , 
01385, , 7.949063, -3.965495, 0.213146, -3.664325, 1.516656, -1.861248, 0.227855, 3.021470, 0.355467, -0.956543, -0.161133, 0.080322, 0.079581, -0.039515, 0.000885, 0.999884, 0.001139, 0.015107, 0.001777, -3.208326, -83.764592, -116.904880, , , 0.000000, , , 
01386, , 8.849058, -4.440467, 0.162621, -4.258701, 1.362925, -0.978154, 0.738187, 2.854520, 0.415280, -0.952148, -0.169922, 0.062988, 0.088592, -0.044223, 0.000199, 0.999889, 0.003691, 0.014272, 0.002076, -3.856380, -82.018682, -115.825818, , , 0.000000, , , 
01387, , 10.490471, -4.246976, 0.796635, -3.997766, 1.325472, 0.721716, 1.086020, 2.609710, 0.427136, -0.941406, -0.178955, 0.045898, 0.105085, -0.042283, 0.006366, 0.999898, 0.005430, 0.013048, 0.002136, -4.138245, -80.510072, -114.911490, , , 0.000000, , , 
01388, , 12.256529, -4.246340, 1.773886, -3.788997, 1.578369, 2.618846, 1.105870, 2.365480, 0.390445, -0.939209, -0.183350, 0.028564, 0.122845, -0.042316, 0.016053, 0.999913, 0.005529, 0.011827, 0.001952, -4.270226, -79.052304, -114.136663, , , 0.000000, , , 
01389, , 14.029252, -3.589531, 3.158974, -2.848122, 1.853233, 4.613970, 1.160020, 1.997576, 0.243575, -0.937012, -0.194336, 0.028564, 0.140641, -0.035901, 0.029978, 0.999933, 0.005800, 0.009988, 0.001218, -3.884479, -77.900841, -113.852374, , , 0.000000, , , 
01390, , 15.596479, -2.031239, 3.546424, -1.587974, 0.853221, 6.209003, 0.643656, 1.971320, 0.032676, -0.923828, -0.216309, 0.013672, 0.156307, -0.020398, 0.033859, 0.999946, 0.003218, 0.009856, 0.000163, -3.411258, -76.687625, -113.966519, , , 0.000000, , , 
01391, , 15.086831, -1.458527, 0.776526, -2.452909, -1.983968, 5.032485, -0.306388, 2.398256, -0.214630, -0.921387, -0.233887, -0.014404, 0.150931, -0.014737, 0.005978, 0.999926, -0.001532, 0.011991, -0.001073, -2.792009, -75.322208, -114.785934, , , 0.000000, , , 
01392, , 12.477568, -0.289794, -1.582848, -2.380206, -4.234845, 1.792084, -0.572541, 2.622476, -0.217923, -0.904053, -0.251465, -0.037842, 0.124551, -0.003082, -0.017454, 0.999909, -0.002863, 0.013112, -0.001090, -2.549300, -73.754376, -115.388574, , , 0.000000, , , 
01393, , 10.253020, 1.701796, -1.005865, -0.236286, -4.332359, -0.315190, 0.050265, 2.307336, -0.124113, -0.893066, -0.273682, -0.048584, 0.102416, 0.016957, -0.011236, 0.999933, 0.000251, 0.011536, -0.000621, -2.106968, -72.436358, -115.821109, , , 0.000000, , , 
01394, , 9.253037, 3.776530, 1.758755, 2.870265, -2.876554, -0.514364, 0.510283, 1.961372, 0.002411, -0.880127, -0.286865, -0.080811, 0.092697, 0.037723, 0.016775, 0.999949, 0.002551, 0.009807, 0.000012, -1.801962, -71.264405, -115.845326, , , 0.000000, , , 
01395, , 9.251356, 4.523850, 3.649869, 4.286417, -1.782153, 0.077842, 0.286402, 1.828015, 0.125388, -0.877686, -0.306641, -0.104492, 0.092814, 0.045245, 0.035716, 0.999957, 0.001432, 0.009140, 0.000627, -1.747974, -70.215302, -115.729051, , , 0.000000, , , 
01396, , 8.545788, 3.693388, 4.954972, 4.158654, -0.257766, -0.124538, -0.195919, 1.623475, 0.251148, -0.862549, -0.315430, -0.128174, 0.085810, 0.037090, 0.048818, 0.999966, -0.000980, 0.008117, 0.001256, -2.196155, -69.237208, -115.375981, , , 0.000000, , , 
01397, , 8.474386, 2.336392, 5.600178, 3.212915, 0.774852, 0.072201, -0.502647, 1.258064, 0.232742, -0.851807, -0.324219, -0.147461, 0.085066, 0.023603, 0.055408, 0.999976, -0.002513, 0.006290, 0.001164, -2.746257, -68.511305, -115.095365, , , 0.000000, , , 
01398, , 8.983874, 1.044983, 4.788102, 1.617140, 0.383930, 0.285006, -1.027278, 1.274710, 0.164773, -0.841064, -0.331055, -0.175537, 0.090132, 0.010768, 0.047252, 0.999966, -0.005136, 0.006373, 0.000824, -3.464297, -67.728890, -114.955667, , , 0.000000, , , 
01399, , 8.329403, -0.278760, 3.470869, -0.036961, 0.022935, -0.784935, -1.345126, 1.324205, 0.132111, -0.825928, -0.335449, -0.209961, 0.083523, -0.002501, 0.034174, 0.999955, -0.006726, 0.006621, 0.000661, -4.290948, -66.966807, -114.895422, , , 0.000000, , , 
01400, , 7.815816, -0.960968, 2.850401, -0.840533, -0.083052, -1.480760, -1.299684, 1.213852, 0.075460, -0.819580, -0.339844, -0.238037, 0.078333, -0.009397, 0.028090, 0.999960, -0.006498, 0.006069, 0.000377, -4.992724, -66.223099, -114.940847, , , 0.000000, , , 
01401, , 7.577155, -0.752221, 2.583076, -0.752397, -0.401976, -1.817496, -1.151343, 1.113957, 0.012605, -0.813232, -0.337646, -0.257568, 0.075914, -0.007370, 0.025451, 0.999968, -0.005757, 0.005570, 0.000063, -5.535622, -65.586899, -115.069144, , , 0.000000, , , 
01402, , 7.253927, -0.252027, 2.606541, -0.269077, -0.600373, -2.128701, -1.097731, 1.009587, -0.012196, -0.806885, -0.337646, -0.279053, 0.072670, -0.002383, 0.025712, 0.999972, -0.005489, 0.005048, -0.000061, -6.017875, -64.970089, -115.230487, , , 0.000000, , , 
01403, , 6.879838, -0.163379, 2.599691, -0.140946, -0.581728, -2.480664, -1.103491, 0.906341, -0.016719, -0.798340, -0.335693, -0.300781, 0.068915, -0.001497, 0.025693, 0.999975, -0.005517, 0.004532, -0.000084, -6.508260, -64.454963, -115.387772, , , 0.000000, , , 
01404, , 6.484306, -0.177174, 2.807087, 0.013443, -0.331941, -2.752470, -1.091713, 0.771927, 0.002801, -0.793945, -0.339844, -0.322266, 0.064951, -0.001618, 0.027829, 0.999978, -0.005459, 0.003860, 0.000014, -7.024362, -63.978420, -115.509086, , , 0.000000, , , 
01405, , 6.225678, -0.592745, 2.874231, -0.253794, -0.016827, -2.934701, -1.157627, 0.672475, 0.022704, -0.785645, -0.335693, -0.339600, 0.062354, -0.005755, 0.028566, 0.999978, -0.005788, 0.003362, 0.000114, -7.612439, -63.594634, -115.593284, , , 0.000000, , , 
01406, , 6.108258, -1.260651, 3.129369, -0.656101, 0.525504, -2.885480, -1.073688, 0.596555, 0.042859, -0.785645, -0.333496, -0.352539, 0.061178, -0.012426, 0.031178, 0.999981, -0.005368, 0.002983, 0.000214, -8.178421, -63.218537, -115.648238, , , 0.000000, , , 
01407, , 6.045623, -1.799858, 3.366694, -0.955934, 0.976612, -2.794431, -1.042738, 0.536130, 0.059632, -0.779297, -0.335693, -0.369873, 0.060552, -0.017805, 0.033598, 0.999983, -0.005214, 0.002681, 0.000298, -8.751728, -62.909715, -115.675698, , , 0.000000, , , 
01408, , 5.886208, -2.566585, 3.253000, -1.602223, 1.343851, -2.924752, -0.810677, 0.451160, 0.087977, -0.772949, -0.329102, -0.376465, 0.058947, -0.025508, 0.032501, 0.999989, -0.004053, 0.002256, 0.000440, -9.238699, -62.613248, -115.652283, , , 0.000000, , , 
01409, , 5.938842, -2.606852, 3.728392, -1.380775, 1.661620, -2.650365, -0.412824, 0.280501, 0.113311, -0.783691, -0.331055, -0.391602, 0.059455, -0.025958, 0.037254, 0.999997, -0.002064, 0.001403, 0.000567, -9.546367, -62.444137, -115.572490, , , 0.000000, , , 
01410, , 6.092820, -2.392689, 4.289864, -0.930893, 1.856956, -2.267127, -0.073279, 0.138508, 0.153745, -0.774902, -0.335693, -0.391357, 0.060976, -0.023864, 0.042865, 0.999999, -0.000366, 0.000693, 0.000769, -9.747154, -62.317384, -115.398629, , , 0.000000, , , 
01411, , 6.351612, -2.020451, 4.807395, -0.399543, 1.897562, -1.826709, 0.128251, 0.063375, 0.197108, -0.779297, -0.329102, -0.397949, 0.063551, -0.020173, 0.048041, 0.999999, 0.000641, 0.000317, 0.000986, -9.872177, -62.262403, -115.174793, , , 0.000000, , , 
01412, , 6.513754, -1.582066, 4.891823, -0.024205, 1.627851, -1.675651, 0.120788, 0.089292, 0.226629, -0.775146, -0.333496, -0.402344, 0.065177, -0.015776, 0.048880, 0.999999, 0.000604, 0.000446, 0.001133, -10.055154, -62.152976, -114.897208, , , 0.000000, , , 
01413, , 6.152579, -1.482787, 4.536514, -0.054274, 1.457425, -2.163779, 0.080610, 0.083658, 0.247952, -0.777100, -0.333496, -0.404541, 0.061563, -0.014770, 0.045333, 0.999999, 0.000403, 0.000418, 0.001240, -10.255727, -62.080778, -114.618424, , , 0.000000, , , 
01414, , 5.969121, -1.485067, 4.400295, -0.084551, 1.423388, -2.385358, 0.088656, -0.044035, 0.274007, -0.779541, -0.326660, -0.408691, 0.059702, -0.014788, 0.044010, 0.999999, 0.000443, -0.000220, 0.001370, -10.533124, -62.038179, -114.255062, , , 0.000000, , , 
01415, , 6.530062, -1.612007, 4.782069, -0.084393, 1.522042, -1.701910, 0.038887, -0.114253, 0.272786, -0.781494, -0.331055, -0.410889, 0.065295, -0.016040, 0.047855, 0.999999, 0.000194, -0.000571, 0.001364, -10.821689, -62.073576, -113.903575, , , 0.000000, , , 
01416, , 6.574617, -1.745404, 5.264698, 0.067369, 1.909899, -1.425985, -0.072550, -0.061799, 0.279212, -0.783691, -0.331055, -0.415283, 0.065754, -0.017343, 0.052674, 0.999999, -0.000363, -0.000309, 0.001396, -11.202267, -62.036588, -113.528449, , , 0.000000, , , 
01417, , 6.361190, -1.822964, 5.403464, 0.140128, 2.136886, -1.542296, -0.162266, -0.139675, 0.271031, -0.785889, -0.328857, -0.410889, 0.063599, -0.018100, 0.054094, 0.999999, -0.000811, -0.000698, 0.001355, -11.610546, -62.084348, -113.171926, , , 0.000000, , , 
01418, , 6.473561, -1.676784, 5.571321, 0.360690, 2.120845, -1.378826, -0.196701, -0.259970, 0.268761, -0.785889, -0.326660, -0.417480, 0.064686, -0.016626, 0.055814, 0.999998, -0.000984, -0.001300, 0.001344, -12.097896, -62.153578, -112.757156, , , 0.000000, , , 
01419, , 6.913282, -1.528350, 6.155506, 0.755098, 2.270579, -0.741102, -0.345813, -0.282714, 0.275301, -0.788086, -0.320068, -0.417480, 0.069067, -0.015082, 0.061679, 0.999997, -0.001729, -0.001414, 0.001377, -12.652780, -62.278015, -112.354304, , , 0.000000, , , 
01420, , 7.087668, -1.848858, 6.502313, 0.696948, 2.607412, -0.397341, -0.570944, -0.198704, 0.266515, -0.790283, -0.313477, -0.415283, 0.070836, -0.018208, 0.065146, 0.999995, -0.002855, -0.000994, 0.001333, -13.342920, -62.305244, -111.953050, , , 0.000000, , , 
01421, , 7.006794, -2.380855, 6.522549, 0.342568, 2.938931, -0.402464, -0.601402, -0.122633, 0.252432, -0.788086, -0.313477, -0.417480, 0.070058, -0.023524, 0.065339, 0.999994, -0.003007, -0.000613, 0.001262, -13.985525, -62.339376, -111.616898, , , 0.000000, , , 
01422, , 6.882847, -2.526023, 6.739718, 0.416125, 3.205436, -0.393028, -0.470677, -0.127360, 0.234658, -0.788330, -0.309082, -0.419678, 0.068815, -0.025021, 0.067500, 0.999996, -0.002353, -0.000637, 0.001173, -14.569296, -62.321997, -111.271149, , , 0.000000, , , 
01423, , 7.172021, -2.680889, 6.751612, 0.292220, 3.165329, -0.111941, -0.342247, -0.100657, 0.203137, -0.788330, -0.306885, -0.415527, 0.071713, -0.026620, 0.067598, 0.999998, -0.001711, -0.000503, 0.001016, -15.006577, -62.348071, -110.999211, , , 0.000000, , , 
01424, , 7.686930, -3.097858, 6.617686, -0.179384, 3.059054, 0.340605, -0.145333, 0.007972, 0.186556, -0.790527, -0.304688, -0.419678, 0.076901, -0.030859, 0.066196, 0.999999, -0.000727, 0.000040, 0.000933, -15.317331, -62.254723, -110.751777, , , 0.000000, , , 
01425, , 8.066750, -3.484520, 7.064650, -0.306253, 3.411694, 0.929293, 0.168765, 0.071146, 0.168949, -0.794678, -0.306885, -0.421875, 0.080722, -0.034837, 0.070588, 0.999999, 0.000844, 0.000356, 0.000845, -15.375830, -62.189796, -110.576750, , , 0.000000, , , 
01426, , 8.488810, -3.555042, 7.965090, 0.041008, 3.876412, 1.724753, 0.373758, 0.091336, 0.125659, -0.790527, -0.306885, -0.421875, 0.084947, -0.035646, 0.079546, 0.999998, 0.001869, 0.000457, 0.000628, -15.305201, -62.054203, -110.425408, , , 0.000000, , , 
01427, , 8.546262, -3.665110, 8.468791, 0.181509, 4.258731, 2.020410, 0.390442, 0.134874, 0.070114, -0.790283, -0.311279, -0.421875, 0.085533, -0.036786, 0.084559, 0.999998, 0.001952, 0.000674, 0.000351, -15.114767, -61.969062, -110.388111, , , 0.000000, , , 
01428, , 8.193326, -3.827477, 8.477130, 0.065322, 4.487319, 1.741593, 0.443906, 0.140315, 0.003017, -0.783936, -0.306885, -0.424072, 0.081993, -0.038461, 0.084629, 0.999997, 0.002220, 0.000702, 0.000015, -14.867936, -61.817789, -110.392159, , , 0.000000, , , 
01429, , 7.919165, -3.515729, 8.860320, 0.520933, 4.710586, 1.637969, 0.521442, 0.098151, -0.075420, -0.788086, -0.315674, -0.421875, 0.079222, -0.035418, 0.088472, 0.999996, 0.002607, 0.000491, -0.000377, -14.463176, -61.774250, -110.512817, , , 0.000000, , , 
01430, , 7.980601, -2.897827, 9.208435, 1.151317, 4.588014, 1.785028, 0.450445, 0.071616, -0.148698, -0.783936, -0.311279, -0.417480, 0.079817, -0.029245, 0.091990, 0.999997, 0.002252, 0.000358, -0.000743, -14.081522, -61.674407, -110.667363, , , 0.000000, , , 
01431, , 8.202574, -2.107283, 8.858176, 1.539561, 3.823089, 1.728705, 0.245615, 0.090013, -0.201591, -0.779541, -0.317871, -0.419678, 0.082044, -0.021264, 0.088519, 0.999999, 0.001228, 0.000450, -0.001008, -13.708441, -61.651951, -110.931732, , , 0.000000, , , 
01432, , 8.122809, -1.362865, 8.094200, 1.739733, 2.896403, 1.229851, -0.030534, 0.123164, -0.219132, -0.785889, -0.320068, -0.428223, 0.081263, -0.013705, 0.080894, 0.999999, -0.000153, 0.000616, -0.001096, -13.518298, -61.524654, -111.182210, , , 0.000000, , , 
01433, , 7.995476, -0.672716, 7.396212, 1.959985, 2.074008, 0.720169, -0.340011, 0.112046, -0.208869, -0.790283, -0.317871, -0.432617, 0.079989, -0.006685, 0.073929, 0.999998, -0.001700, 0.000560, -0.001044, -13.469672, -61.489974, -111.459579, , , 0.000000, , , 
01434, , 8.686189, -0.202081, 7.171573, 2.117493, 1.318168, 1.173704, -0.565217, 0.059374, -0.209011, -0.781738, -0.317871, -0.428223, 0.086881, -0.001909, 0.071695, 0.999995, -0.002826, 0.000297, -0.001045, -13.608156, -61.393671, -111.683698, , , 0.000000, , , 
01435, , 10.551497, 0.252453, 7.651486, 2.439155, 0.559011, 2.981100, -0.739643, 0.000525, -0.250919, -0.786133, -0.317871, -0.434814, 0.105518, 0.002675, 0.076505, 0.999992, -0.003698, 0.000003, -0.001255, -13.774070, -61.427184, -111.977758, , , 0.000000, , , 
01436, , 13.550721, 0.312597, 8.042558, 2.176557, -0.584292, 5.786145, -0.977961, 0.142019, -0.325588, -0.783936, -0.311279, -0.441406, 0.135570, 0.003298, 0.080313, 0.999986, -0.004890, 0.000710, -0.001628, -14.000657, -61.302104, -112.368517, , , 0.000000, , , 
01437, , 14.895239, 0.412908, 8.613594, 2.325459, -0.919470, 7.216063, -1.318306, 0.565313, -0.389409, -0.779785, -0.313477, -0.456543, 0.149203, 0.004405, 0.085686, 0.999972, -0.006591, 0.002827, -0.001947, -14.217969, -61.042099, -112.983031, , , 0.000000, , , 
01438, , 13.261995, -0.349618, 7.096228, 1.149328, -0.940086, 5.159048, -1.821575, 0.858240, -0.480265, -0.773438, -0.302490, -0.465088, 0.132915, -0.003172, 0.070422, 0.999946, -0.009108, 0.004291, -0.002401, -14.589432, -60.547665, -113.760987, , , 0.000000, , , 
01439, , 10.676775, -1.481619, 2.648581, -1.804268, -2.178594, 0.920520, -1.639578, 0.769538, -0.394648, -0.769287, -0.304688, -0.480225, 0.106840, -0.014811, 0.026196, 0.999957, -0.008198, 0.003848, -0.001973, -14.945621, -60.178652, -114.432379, , , 0.000000, , , 
01440, , 7.492237, -2.386021, -0.909985, -3.969951, -2.553528, -3.458665, -0.351579, 0.454027, -0.406838, -0.767090, -0.306885, -0.480225, 0.074853, -0.024029, -0.009228, 0.999994, -0.001758, 0.002270, -0.002034, -14.664543, -59.908217, -114.997559, , , 0.000000, , , 
01441, , 5.498410, -2.347059, -2.206237, -4.299362, -2.510886, -5.835304, 0.966197, -0.123781, -0.555447, -0.769043, -0.317871, -0.480225, 0.054933, -0.023516, -0.022142, 0.999984, 0.004831, -0.000619, -0.002777, -13.605456, -60.054357, -115.581752, , , 0.000000, , , 
01442, , 4.648461, -2.343983, -1.369949, -3.642885, -1.575631, -6.175936, 0.905595, -0.640487, -0.581913, -0.768799, -0.324463, -0.465088, 0.046460, -0.023513, -0.013657, 0.999980, 0.004528, -0.003202, -0.002910, -12.702724, -60.422435, -116.036317, , , 0.000000, , , 
01443, , 5.525309, -3.209770, -1.824055, -4.781517, -1.719880, -5.530421, 0.589861, -0.909934, -0.656835, -0.768799, -0.329102, -0.451904, 0.055230, -0.032226, -0.018084, 0.999980, 0.002949, -0.004550, -0.003284, -11.905825, -61.011595, -116.562861, , , 0.000000, , , 
01444, , 6.396577, -2.076932, -1.331828, -3.788683, -2.394195, -4.624553, 0.780931, -1.372293, -0.823774, -0.781494, -0.335449, -0.434570, 0.063969, -0.020982, -0.012961, 0.999960, 0.003905, -0.006861, -0.004119, -10.949183, -61.821635, -117.158724, , , 0.000000, , , 
01445, , 9.408450, 1.704475, 0.038495, -0.633229, -4.851025, -1.597568, 0.897684, -1.928126, -1.040668, -0.785400, -0.353027, -0.410889, 0.094161, 0.016550, 0.001368, 0.999930, 0.004488, -0.009640, -0.005203, -9.689222, -63.014848, -118.000263, , , 0.000000, , , 
01446, , 13.214338, 4.794653, -0.558935, 0.720942, -8.423565, 1.431674, 0.498843, -1.857752, -1.072063, -0.787598, -0.353027, -0.389160, 0.132441, 0.047249, -0.004242, 0.999939, 0.002494, -0.009289, -0.005360, -8.582943, -64.121749, -118.931588, , , 0.000000, , , 
01447, , 13.835665, 3.801680, -2.724982, -1.397290, -9.371262, 1.301476, 0.068907, -1.678452, -0.879866, -0.791748, -0.359619, -0.365479, 0.138744, 0.037416, -0.026074, 0.999955, 0.000345, -0.008392, -0.004399, -7.778029, -65.144856, -119.779031, , , 0.000000, , , 
01448, , 13.061810, 2.230248, -2.509677, -2.331782, -7.800198, 0.938960, 0.184094, -1.721706, -0.631174, -0.791748, -0.357422, -0.348145, 0.130897, 0.021912, -0.023950, 0.999958, 0.000920, -0.008608, -0.003156, -7.206634, -66.148255, -120.299819, , , 0.000000, , , 
01449, , 11.766986, 2.086720, -0.276053, -0.859203, -5.480748, 0.775645, -0.009205, -1.541123, -0.404554, -0.800293, -0.353027, -0.324463, 0.117728, 0.020629, -0.001854, 0.999968, -0.000046, -0.007706, -0.002023, -6.929716, -67.052488, -120.607657, , , 0.000000, , , 
01450, , 9.547483, 1.197055, 0.428970, -0.667477, -3.557439, -0.886940, -0.298843, -1.424149, -0.294350, -0.800293, -0.346436, -0.298584, 0.095459, 0.011837, 0.004952, 0.999972, -0.001494, -0.007121, -0.001472, -6.967966, -67.876171, -120.758180, , , 0.000000, , , 
01451, , 7.794981, 1.111947, 0.936852, -0.051967, -2.459049, -2.274456, -0.229392, -1.592236, -0.334453, -0.802734, -0.331299, -0.274902, 0.077890, 0.011000, 0.009976, 0.999966, -0.001147, -0.007961, -0.001672, -6.895787, -68.804327, -120.977618, , , 0.000000, , , 
01452, , 7.635231, 1.125116, 1.151115, 0.167423, -2.147573, -2.312951, -0.181040, -1.761502, -0.438123, -0.804932, -0.324707, -0.257568, 0.076271, 0.011095, 0.012173, 0.999958, -0.000905, -0.008807, -0.002191, -6.681653, -69.835656, -121.322140, , , 0.000000, , , 
01453, , 7.904899, 0.604792, 1.079245, -0.279852, -1.832417, -2.029377, -0.035818, -1.863637, -0.547972, -0.811523, -0.309326, -0.231689, 0.078960, 0.005834, 0.011527, 0.999953, -0.000179, -0.009318, -0.002740, -6.159730, -70.931271, -121.898340, , , 0.000000, , , 
01454, , 8.680230, 0.099959, 1.043742, -0.773374, -1.611001, -1.254094, 0.203763, -2.009728, -0.603932, -0.818115, -0.298340, -0.210205, 0.086694, 0.000726, 0.011310, 0.999944, 0.001019, -0.010048, -0.003020, -5.380619, -72.114892, -122.600077, , , 0.000000, , , 
01455, , 9.414907, -0.620824, 1.249514, -1.275685, -1.025738, -0.436971, 0.339702, -2.112698, -0.600964, -0.820557, -0.280762, -0.180176, 0.093991, -0.006513, 0.013478, 0.999938, 0.001698, -0.010563, -0.003005, -4.412308, -73.349763, -123.410567, , , 0.000000, , , 
01456, , 9.619181, -1.295871, 0.828845, -2.014735, -0.786288, -0.314594, 0.574295, -2.169345, -0.562287, -0.824951, -0.265381, -0.152100, 0.096058, -0.013255, 0.009293, 0.999933, 0.002871, -0.010846, -0.002811, -3.277806, -74.618063, -124.251567, , , 0.000000, , , 
01457, , 9.614074, -1.205529, 1.076758, -1.717471, -0.450925, -0.226970, 0.861226, -2.312969, -0.520464, -0.831543, -0.252197, -0.126221, 0.095976, -0.012355, 0.011825, 0.999920, 0.004306, -0.011565, -0.002602, -1.873921, -75.954752, -125.193135, , , 0.000000, , , 
01458, , 9.676915, -1.196631, 0.162974, -2.166577, -0.969551, -0.354213, 1.258916, -2.450640, -0.511498, -0.842529, -0.234619, -0.098389, 0.096709, -0.012229, 0.002739, 0.999902, 0.006294, -0.012253, -0.002557, -0.052265, -77.373198, -126.327220, , , 0.000000, , , 
01459, , 9.636321, -0.172377, 0.850112, -0.846881, -0.807905, -0.208751, 1.719122, -2.619135, -0.502261, -0.853516, -0.210449, -0.081299, 0.096236, -0.002046, 0.009745, 0.999874, 0.008595, -0.013095, -0.002511, 2.453256, -78.866918, -127.881188, , , 0.000000, , , 
01460, , 9.532562, 1.211838, 0.732774, 0.327398, -1.448334, -0.290895, 1.377190, -2.542677, -0.462972, -0.866699, -0.194824, -0.066406, 0.095249, 0.011841, 0.008621, 0.999893, 0.006886, -0.012713, -0.002315, 5.162046, -80.315813, -129.835940, , , 0.000000, , , 
01461, , 8.849657, 1.515369, -0.042910, 0.317535, -1.936306, -1.051420, 1.045632, -2.469806, -0.411722, -0.873291, -0.175049, -0.049072, 0.088523, 0.014970, 0.000743, 0.999908, 0.005228, -0.012349, -0.002059, 8.292500, -81.693113, -132.398929, , , 0.000000, , , 
01462, , 8.651603, 1.693533, -0.338207, 0.423503, -2.048717, -1.242298, 0.984365, -2.470803, -0.371154, -0.884277, -0.157471, -0.031982, 0.086580, 0.016788, -0.002230, 0.999910, 0.004922, -0.012354, -0.001856, 12.275821, -83.063401, -135.850391, , , 0.000000, , , 
01463, , 8.489297, 1.339604, -0.105861, 0.370259, -1.446093, -1.348554, 1.012872, -2.430735, -0.307697, -0.901611, -0.139648, -0.030029, 0.084917, 0.013267, 0.000041, 0.999912, 0.005064, -0.012153, -0.001538, 17.675404, -84.363573, -140.698763, , , 0.000000, , , 
01464, , 8.467661, 0.946395, 0.504629, 0.471191, -0.521476, -1.306593, 1.159899, -2.433325, -0.258693, -0.912598, -0.122070, -0.023682, 0.084619, 0.009321, 0.006130, 0.999908, 0.005799, -0.012166, -0.001293, 25.830451, -85.622168, -148.218417, , , 0.000000, , , 
01465, , 8.870513, 0.995995, 0.961488, 0.826367, 0.024443, -0.873195, 1.201873, -2.441496, -0.194620, -0.927734, -0.115234, -0.021484, 0.088588, 0.009811, 0.010756, 0.999907, 0.006009, -0.012207, -0.000973, 39.241557, -86.747515, -160.968621, , , 0.000000, , , 
01466, , 9.060745, 0.567982, 0.583844, 0.354591, 0.133454, -0.723532, 1.181291, -2.415564, -0.165352, -0.949219, -0.108398, -0.017334, 0.090532, 0.005566, 0.006965, 0.999909, 0.005906, -0.012077, -0.000827, 63.191004, -87.569157, 175.730908, , , 0.000000, , , 
01467, , 9.040943, 0.088323, -0.193905, -0.355355, -0.084916, -0.776844, 1.384144, -2.436365, -0.162355, -0.964111, -0.110352, -0.015137, 0.090425, 0.000818, -0.000832, 0.999902, 0.006920, -0.012181, -0.000812, 98.251062, -87.707751, 141.436208, , , 0.000000, , , 
01468, , 9.183684, -0.123098, -0.565545, -0.624488, -0.095576, -0.632728, 1.776380, -2.480176, -0.198403, -0.980957, -0.114746, -0.015137, 0.091896, -0.001279, -0.004527, 0.999883, 0.008882, -0.012400, -0.000992, 127.395151, -87.029569, 113.281555, , , 0.000000, , , 
01469, , 9.284146, 0.225051, -0.516463, -0.197286, -0.015156, -0.513803, 1.904749, -2.408057, -0.235378, -0.997803, -0.127686, -0.008789, 0.092897, 0.002183, -0.004025, 0.999881, 0.009523, -0.012040, -0.001177, 142.821820, -85.948401, 98.919894, , , 0.000000, , , 
01470, , 9.035777, 0.077873, -0.771810, -0.347193, 0.015224, -0.750551, 1.977301, -2.380332, -0.256943, -1.006104, -0.142822, 0.002197, 0.090442, 0.000732, -0.006635, 0.999879, 0.009886, -0.011901, -0.001285, 151.619488, -84.710620, 91.230042, , , 0.000000, , , 
01471, , 9.249008, 0.294046, -0.838752, -0.089992, 0.081267, -0.522107, 2.272793, -2.438519, -0.272094, -1.020752, -0.158203, 0.017334, 0.092587, 0.002901, -0.007226, 0.999860, 0.011363, -0.012192, -0.001360, 157.336940, -83.381885, 86.790903, , , 0.000000, , , 
01472, , 9.807224, 0.890597, -1.049089, 0.463700, -0.077650, 0.079171, 2.353786, -2.386075, -0.259255, -1.014160, -0.175781, 0.023926, 0.098199, 0.008892, -0.009215, 0.999859, 0.011768, -0.011930, -0.001296, 161.436067, -82.039744, 84.018409, , , 0.000000, , , 
01473, , 10.036828, 0.861185, -1.419162, 0.395626, -0.141274, 0.351568, 2.251179, -2.225581, -0.196277, -1.020020, -0.204346, 0.043701, 0.100526, 0.008664, -0.012976, 0.999874, 0.011255, -0.011127, -0.000981, 164.482697, -80.787844, 82.241514, , , 0.000000, , , 
01474, , 9.869305, 0.648167, -1.536365, 0.257377, 0.014744, 0.192984, 2.059940, -1.997833, -0.099865, -1.017578, -0.226318, 0.054688, 0.098843, 0.006583, -0.014309, 0.999897, 0.010299, -0.009989, -0.000499, 167.020690, -79.654105, 80.864249, , , 0.000000, , , 
01475, , 9.721188, 0.698242, -1.628411, 0.361295, 0.062918, 0.061688, 1.688435, -1.784623, -0.035183, -1.017334, -0.239502, 0.069824, 0.097353, 0.007098, -0.015356, 0.999925, 0.008442, -0.008923, -0.000176, 168.989477, -78.650126, 79.844362, , , 0.000000, , , 
01476, , 9.401308, 0.511541, -1.699018, 0.234287, 0.161040, -0.249746, 1.270372, -1.645926, -0.050177, -1.014893, -0.259277, 0.076416, 0.094150, 0.005196, -0.016183, 0.999946, 0.006352, -0.008229, -0.000251, 170.418937, -77.707304, 79.128101, , , 0.000000, , , 
01477, , 9.366496, 0.308490, -0.818712, 0.411272, 1.179797, -0.488882, 1.197811, -1.721294, -0.103810, -1.010254, -0.279053, 0.102539, 0.093732, 0.003082, -0.007362, 0.999945, 0.005989, -0.008606, -0.000519, 171.524514, -76.724419, 78.697844, , , 0.000000, , , 
01478, , 9.893454, 0.674790, 1.439742, 1.575461, 3.405564, -0.521516, 1.245366, -1.730214, -0.147888, -0.999268, -0.294678, 0.122070, 0.098810, 0.006581, 0.015294, 0.999943, 0.006227, -0.008651, -0.000739, 172.482252, -75.722624, 78.447025, , , 0.000000, , , 
01479, , 9.640118, 1.176278, 2.705831, 2.460417, 4.506056, -1.136509, 1.121620, -1.636010, -0.164514, -0.994873, -0.303467, 0.137207, 0.096185, 0.011529, 0.027911, 0.999950, 0.005608, -0.008180, -0.000823, 173.209732, -74.781299, 78.358959, , , 0.000000, , , 
01480, , 9.574780, 1.100756, 1.451473, 2.011756, 3.522159, -0.950422, 1.204665, -1.564120, -0.132547, -0.994629, -0.305908, 0.154541, 0.095637, 0.010853, 0.015329, 0.999951, 0.006023, -0.007820, -0.000663, 173.999693, -73.881251, 78.255724, , , 0.000000, , , 
01481, , 9.772731, 1.347065, -0.414565, 1.735897, 1.947194, -0.289786, 1.434567, -1.449093, -0.084728, -0.981689, -0.316895, 0.172119, 0.097759, 0.013455, -0.003341, 0.999948, 0.007173, -0.007245, -0.000424, 174.925813, -73.050675, 78.146718, , , 0.000000, , , 
01482, , 10.134465, 1.096833, -1.449465, 1.279235, 1.322514, 0.317651, 1.435236, -1.395410, -0.026866, -0.979492, -0.321289, 0.187256, 0.101444, 0.011055, -0.013708, 0.999950, 0.007176, -0.006977, -0.000134, 175.907886, -72.256490, 77.979365, , , 0.000000, , , 
01483, , 11.201258, 0.831819, -1.464187, 1.154788, 1.850241, 1.302368, 1.322377, -1.439141, 0.062341, -0.977295, -0.319336, 0.202393, 0.112111, 0.008446, -0.013780, 0.999952, 0.006612, -0.007196, 0.000312, 176.928751, -71.436294, 77.702039, , , 0.000000, , , 
01484, , 11.963681, 0.986924, -0.817098, 1.588770, 2.789519, 1.783146, 1.107457, -1.306945, 0.126884, -0.968750, -0.321533, 0.223877, 0.119680, 0.009987, -0.007334, 0.999963, 0.005537, -0.006535, 0.000634, 177.873750, -70.698282, 77.373547, , , 0.000000, , , 
01485, , 11.983919, 1.335225, 0.382259, 2.274192, 3.941162, 1.360348, 1.020342, -1.113252, 0.144698, -0.964600, -0.317383, 0.234619, 0.119805, 0.013417, 0.004558, 0.999971, 0.005102, -0.005566, 0.000723, 178.741299, -70.063719, 77.072819, , , 0.000000, , , 
01486, , 12.203763, 2.488799, 1.738312, 3.762360, 5.090794, 1.053521, 0.990743, -0.943752, 0.151608, -0.973145, -0.310547, 0.241211, 0.121935, 0.024892, 0.018082, 0.999976, 0.004954, -0.004719, 0.000758, 179.561650, -69.536675, 76.802864, , , 0.000000, , , 
01487, , 12.718078, 3.428396, 1.482756, 4.692172, 4.921988, 1.565289, 0.816734, -0.707212, 0.167981, -0.971191, -0.306396, 0.249756, 0.127098, 0.034329, 0.015417, 0.999985, 0.004084, -0.003536, 0.000840, -179.716017, -69.132189, 76.530629, , , 0.000000, , , 
01488, , 12.860797, 3.397925, 0.169480, 4.430065, 3.868339, 2.119807, 0.746036, -0.535347, 0.191085, -0.973633, -0.288818, 0.249512, 0.128570, 0.034095, 0.002166, 0.999989, 0.003730, -0.002677, 0.000955, -179.029290, -68.845250, 76.251063, , , 0.000000, , , 
01489, , 12.636502, 2.821256, -0.855746, 3.680692, 3.056542, 2.248923, 0.713930, -0.463864, 0.176419, -0.986572, -0.273193, 0.258057, 0.126359, 0.028354, -0.008163, 0.999991, 0.003570, -0.002319, 0.000882, -178.378462, -68.577881, 75.991213, , , 0.000000, , , 
01490, , 12.803289, 2.275186, -0.914460, 3.189109, 3.238611, 2.405226, 0.683919, -0.452040, 0.160513, -0.993408, -0.249023, 0.253662, 0.128035, 0.022885, -0.008777, 0.999991, 0.003420, -0.002260, 0.000803, -177.803813, -68.342887, 75.791769, , , 0.000000, , , 
01491, , 13.449226, 2.232777, 0.125964, 3.440623, 4.481998, 2.595224, 0.541022, -0.387356, 0.157792, -1.002197, -0.229248, 0.257812, 0.134472, 0.022430, 0.001581, 0.999994, 0.002705, -0.001937, 0.000789, -177.293491, -68.117950, 75.575675, , , 0.000000, , , 
01492, , 14.897374, 2.746640, 1.206423, 4.304211, 5.916494, 3.506469, 0.270835, -0.235650, 0.186328, -1.006836, -0.204834, 0.255371, 0.148934, 0.027589, 0.012277, 0.999998, 0.001354, -0.001178, 0.000932, -176.925598, -68.010667, 75.342693, , , 0.000000, , , 
01493, , 16.053404, 3.269445, 2.049612, 5.110631, 7.002255, 4.239064, -0.028268, 0.040777, 0.214374, -1.026611, -0.171875, 0.252930, 0.160503, 0.032869, 0.020459, 0.999999, -0.000141, 0.000204, 0.001072, -176.636754, -68.027807, 75.013371, , , 0.000000, , , 
01494, , 16.471147, 3.266864, 2.985121, 5.343218, 7.949247, 4.299041, -0.187774, 0.425892, 0.230967, -1.031738, -0.132324, 0.250488, 0.164737, 0.032887, 0.029470, 0.999997, -0.000939, 0.002129, 0.001155, -176.422106, -68.306370, 74.661841, , , 0.000000, , , 
01495, , 16.513726, 3.055615, 4.213411, 5.393677, 9.018386, 3.948398, -0.335598, 0.874763, 0.212716, -1.047363, -0.079346, 0.254395, 0.165287, 0.030802, 0.041360, 0.999988, -0.001678, 0.004374, 0.001064, -176.225041, -68.799491, 74.243162, , , 0.000000, , , 
01496, , 16.418490, 2.263706, 4.477096, 4.667934, 9.199447, 3.909923, -0.526045, 1.493405, 0.187219, -1.048340, -0.028809, 0.264893, 0.164491, 0.022906, 0.043483, 0.999968, -0.002630, 0.007467, 0.000936, -176.148484, -69.701939, 73.834450, , , 0.000000, , , 
01497, , 15.793557, 0.538894, 3.220105, 2.672071, 7.943208, 3.965932, -0.607902, 2.224764, 0.154701, -1.042480, 0.014893, 0.286377, 0.158276, 0.005606, 0.030425, 0.999933, -0.003039, 0.011124, 0.000773, -176.007584, -70.968423, 73.314603, , , 0.000000, , , 
01498, , 14.832738, -2.078264, 1.643703, -0.337791, 6.400712, 3.822972, -0.538222, 3.058853, 0.157961, -1.032227, 0.036621, 0.305664, 0.148573, -0.020625, 0.014222, 0.999879, -0.002691, 0.015294, 0.000790, -175.715414, -72.777553, 72.679474, , , 0.000000, , , 
01499, , 13.674224, -4.500522, 1.200372, -2.948728, 5.784528, 3.090933, -0.271570, 3.705016, 0.301166, -1.019531, 0.040771, 0.324951, 0.137002, -0.044785, 0.009528, 0.999826, -0.001358, 0.018524, 0.001506, -174.666855, -74.879464, 71.425549, , , 0.000000, , , 
01500, , 12.835529, -6.614503, 1.863664, -4.979234, 6.214345, 2.375097, -0.457786, 4.164854, 0.544345, -1.006592, 0.031982, 0.338135, 0.128888, -0.065756, 0.016107, 0.999777, -0.002289, 0.020823, 0.002722, -172.656990, -77.290772, 69.084762, , , 0.000000, , , 
01501, , 11.823689, -7.465463, 0.205858, -6.277146, 4.174783, 1.965466, -0.774200, 4.386516, 0.799129, -0.995361, 0.009766, 0.346924, 0.118545, -0.074179, -0.000252, 0.999744, -0.003871, 0.021931, 0.003995, -168.903020, -79.700918, 64.801756, , , 0.000000, , , 
01502, , 11.981500, -6.006609, -2.545888, -5.538024, 0.714843, 2.633779, -0.459034, 4.428826, 0.767919, -0.990479, -0.027588, 0.338623, 0.119444, -0.059669, -0.027969, 0.999745, -0.002295, 0.022142, 0.003839, -162.503826, -82.129843, 58.058749, , , 0.000000, , , 
01503, , 12.637885, -2.420898, -5.050025, -2.704616, -3.061548, 3.391916, -0.015296, 4.422224, 0.536589, -0.985596, -0.075928, 0.323730, 0.125286, -0.023876, -0.053277, 0.999752, -0.000076, 0.022109, 0.002683, -151.803259, -84.356462, 47.276633, , , 0.000000, , , 
01504, , 13.752441, -1.008214, -6.383794, -1.701276, -5.224387, 4.353319, 0.390722, 4.223351, 0.176252, -0.980713, -0.111084, 0.293701, 0.136144, -0.009833, -0.066742, 0.999775, 0.001953, 0.021115, 0.000881, -131.709477, -86.279200, 27.346999, , , 0.000000, , , 
01505, , 15.194205, -0.866548, -6.482762, -1.615707, -5.906370, 5.553180, 1.252508, 3.867193, -0.175756, -0.971680, -0.143799, 0.263672, 0.150643, -0.008380, -0.067802, 0.999793, 0.006262, 0.019335, -0.000879, -94.802511, -87.298134, -8.894448, , , 0.000000, , , 
01506, , 16.511998, 1.293273, -4.346804, 0.922847, -4.932077, 6.558301, 1.840074, 3.480317, -0.499616, -0.968994, -0.172363, 0.229492, 0.164364, 0.012938, -0.046214, 0.999803, 0.009200, 0.017400, -0.002498, -51.900876, -86.964620, -50.787348, , , 0.000000, , , 
01507, , 18.084694, 3.045604, -3.282023, 2.749110, -4.892051, 7.951944, 1.265410, 3.552715, -0.637292, -0.964355, -0.205322, 0.188477, 0.180324, 0.030101, -0.035835, 0.999817, 0.006327, 0.017762, -0.003186, -26.793954, -85.590482, -75.217809, , , 0.000000, , , 
01508, , 18.077611, 3.973397, -3.640414, 3.354273, -6.049066, 7.736029, 0.346894, 3.849794, -0.616711, -0.955566, -0.225098, 0.149902, 0.180153, 0.039245, -0.039808, 0.999808, 0.001734, 0.019248, -0.003083, -14.578216, -83.594916, -87.283814, , , 0.000000, , , 
01509, , 16.823758, 3.636169, -3.830511, 2.728006, -6.657930, 6.284537, -0.640976, 3.982235, -0.565940, -0.950928, -0.242432, 0.100342, 0.167531, 0.035757, -0.041761, 0.999793, -0.003205, 0.019910, -0.002830, -8.979164, -81.423479, -93.300702, , , 0.000000, , , 
01510, , 15.528836, 2.406702, -3.464860, 1.347545, -6.464609, 4.860337, -1.288081, 3.966976, -0.531582, -0.940186, -0.257812, 0.054932, 0.154621, 0.023418, -0.037872, 0.999779, -0.006440, 0.019833, -0.002658, -6.100179, -79.167972, -96.965300, , , 0.000000, , , 
01511, , 14.404306, 1.816568, -2.470674, 0.762510, -5.719452, 3.735857, -1.572211, 3.947229, -0.570497, -0.927246, -0.269043, 0.009766, 0.143567, 0.017546, -0.027683, 0.999770, -0.007860, 0.019735, -0.002852, -4.473411, -76.944387, -99.548782, , , 0.000000, , , 
01512, , 13.509411, 1.251322, -1.513200, 0.220946, -4.988481, 2.891591, -1.658186, 3.979010, -0.667773, -0.907959, -0.280029, -0.039795, 0.134797, 0.011922, -0.017916, 0.999762, -0.008290, 0.019893, -0.003339, -3.241568, -74.661264, -101.793186, , , 0.000000, , , 
01513, , 12.119045, 0.794208, -0.735290, -0.187715, -4.244440, 1.587746, -1.628601, 4.069088, -0.761088, -0.892822, -0.291016, -0.080811, 0.121035, 0.007408, -0.009878, 0.999753, -0.008142, 0.020344, -0.003805, -2.319319, -72.352181, -103.728267, , , 0.000000, , , 
01514, , 10.530996, 0.129378, -0.482346, -0.865861, -3.761493, -0.002657, -1.780122, 4.047768, -0.791719, -0.884033, -0.304199, -0.124023, 0.105187, 0.000822, -0.006962, 0.999748, -0.008900, 0.020237, -0.003958, -1.721672, -70.022110, -105.429751, , , 0.000000, , , 
01515, , 9.389323, -0.690379, -0.978036, -1.875722, -3.902791, -1.396542, -1.853854, 3.852680, -0.745805, -0.862549, -0.315430, -0.166992, 0.093656, -0.007355, -0.011519, 0.999765, -0.009269, 0.019262, -0.003729, -1.512288, -67.826186, -106.792731, , , 0.000000, , , 
01516, , 8.222461, -1.205016, -1.226920, -2.476704, -3.771497, -2.727412, -1.819512, 3.572441, -0.671644, -0.847656, -0.319824, -0.203613, 0.081948, -0.012446, -0.013623, 0.999793, -0.009097, 0.017861, -0.003358, -1.498623, -65.767306, -107.934251, , , 0.000000, , , 
01517, , 7.161335, -1.296068, -1.331769, -2.596040, -3.581812, -3.882683, -1.760151, 3.293168, -0.599411, -0.832764, -0.320068, -0.238281, 0.071343, -0.013298, -0.014378, 0.999821, -0.008800, 0.016465, -0.002997, -1.664598, -63.889273, -108.865526, , , 0.000000, , , 
01518, , 6.195037, -1.065438, -1.529351, -2.418574, -3.544522, -4.971564, -1.725760, 3.047605, -0.527087, -0.819824, -0.326660, -0.270508, 0.061680, -0.010954, -0.016141, 0.999843, -0.008628, 0.015237, -0.002635, -1.929825, -62.136345, -109.670624, , , 0.000000, , , 
01519, , 5.194947, -0.703601, -1.548131, -2.022094, -3.335174, -5.983174, -1.592102, 2.757019, -0.433374, -0.796387, -0.329102, -0.298584, 0.051714, -0.007275, -0.016138, 0.999871, -0.007960, 0.013785, -0.002167, -2.280609, -60.565507, -110.310765, , , 0.000000, , , 
01520, , 4.340322, -0.214144, -1.431359, -1.455959, -3.093143, -6.772192, -1.501985, 2.416479, -0.346167, -0.789795, -0.337891, -0.324463, 0.043222, -0.002326, -0.014820, 0.999897, -0.007510, 0.012082, -0.001731, -2.678858, -59.178997, -110.839037, , , 0.000000, , , 
01521, , 3.657227, 0.191467, -1.577621, -1.068055, -3.081266, -7.518086, -1.589542, 2.097638, -0.273442, -0.775146, -0.329102, -0.346191, 0.036406, 0.001737, -0.016173, 0.999912, -0.007947, 0.010488, -0.001367, -3.231095, -57.985452, -111.259547, , , 0.000000, , , 
01522, , 3.137810, 0.074792, -1.677972, -1.161408, -2.877846, -8.070357, -1.671941, 1.799270, -0.195241, -0.758057, -0.329346, -0.363281, 0.031226, 0.000576, -0.017066, 0.999924, -0.008359, 0.008996, -0.000976, -3.897819, -56.955969, -111.598631, , , 0.000000, , , 
01523, , 2.921795, -0.183569, -1.951677, -1.498651, -2.872916, -8.441671, -1.705212, 1.530177, -0.135134, -0.749512, -0.327148, -0.382812, 0.029066, -0.002023, -0.019723, 0.999934, -0.008526, 0.007651, -0.000676, -4.658305, -56.086113, -111.858654, , , 0.000000, , , 
01524, , 2.677054, -0.627215, -2.299442, -2.021894, -2.802126, -8.860208, -1.672634, 1.311790, -0.083156, -0.745361, -0.320557, -0.400146, 0.026617, -0.006476, -0.023116, 0.999943, -0.008363, 0.006559, -0.000416, -5.435874, -55.338085, -112.071235, , , 0.000000, , , 
01525, , 2.342026, -1.038168, -2.360300, -2.376951, -2.466179, -9.178823, -1.508104, 1.058437, -0.070468, -0.736816, -0.316406, -0.408691, 0.023291, -0.010568, -0.023647, 0.999958, -0.007540, 0.005292, -0.000352, -6.154033, -54.737489, -112.249710, , , 0.000000, , , 
01526, , 2.251840, -1.447626, -2.195086, -2.680037, -2.089040, -9.150857, -1.267206, 0.779738, -0.098571, -0.732666, -0.309814, -0.423828, 0.022426, -0.014626, -0.021946, 0.999972, -0.006336, 0.003899, -0.000493, -6.719742, -54.300347, -112.441555, , , 0.000000, , , 
01527, , 2.136388, -1.629799, -1.792775, -2.665418, -1.637488, -9.007350, -1.009343, 0.482986, -0.139388, -0.728516, -0.305420, -0.424072, 0.021309, -0.016403, -0.017897, 0.999984, -0.005047, 0.002415, -0.000697, -7.141102, -54.033958, -112.635566, , , 0.000000, , , 
01528, , 1.937783, -1.719995, -1.429184, -2.556175, -1.215631, -8.950057, -0.851511, 0.185184, -0.180432, -0.719971, -0.303223, -0.421875, 0.019349, -0.017278, -0.014236, 0.999990, -0.004258, 0.000926, -0.000902, -7.461857, -53.945558, -112.839140, , , 0.000000, , , 
01529, , 1.602623, -1.984210, -1.215728, -2.623652, -0.740886, -9.070403, -0.741268, -0.149906, -0.221512, -0.726562, -0.298828, -0.421875, 0.016013, -0.019905, -0.012072, 0.999992, -0.003706, -0.000750, -0.001108, -7.728128, -54.046169, -113.035415, , , 0.000000, , , 
01530, , 1.230078, -2.234549, -0.882050, -2.610382, -0.171136, -9.148681, -0.467232, -0.542185, -0.248628, -0.728516, -0.303223, -0.413086, 0.012297, -0.022381, -0.008735, 0.999993, -0.002336, -0.002711, -0.001243, -7.855012, -54.379106, -113.208280, , , 0.000000, , , 
01531, , 1.558680, -1.940892, -0.023974, -2.047939, 0.113138, -8.401929, -0.115152, -0.940772, -0.257707, -0.732910, -0.296631, -0.404541, 0.015563, -0.019429, -0.000155, 0.999988, -0.000576, -0.004704, -0.001289, -7.817379, -54.931941, -113.335714, , , 0.000000, , , 
01532, , 2.059994, -1.045038, 1.074870, -0.888579, 0.187333, -7.432293, 0.018275, -1.252021, -0.260462, -0.737305, -0.294434, -0.387207, 0.020518, -0.010478, 0.010876, 0.999980, 0.000091, -0.006260, -0.001302, -7.734282, -55.669672, -113.425599, , , 0.000000, , , 
01533, , 2.884422, 0.018749, 1.699770, 0.142613, -0.293822, -6.480634, -0.180875, -1.489468, -0.286215, -0.745850, -0.296631, -0.374268, 0.028717, 0.000162, 0.017212, 0.999971, -0.000904, -0.007447, -0.001431, -7.766315, -56.536118, -113.512266, , , 0.000000, , , 
01534, , 4.079140, 0.652227, 2.354777, 0.752513, -0.694206, -5.169301, -0.411736, -1.749927, -0.349827, -0.758545, -0.298584, -0.352783, 0.040595, 0.006500, 0.023890, 0.999958, -0.002059, -0.008750, -0.001749, -7.908129, -57.563526, -113.626177, , , 0.000000, , , 
01535, , 5.649976, 0.830353, 3.717522, 1.244076, -0.493070, -3.131416, -0.431941, -2.024451, -0.435981, -0.760742, -0.294189, -0.342041, 0.056138, 0.008262, 0.037727, 0.999944, -0.002160, -0.010122, -0.002180, -8.014813, -58.745608, -113.792324, , , 0.000000, , , 
01536, , 8.059094, 0.292896, 6.125692, 1.484037, 0.530388, 0.190856, -0.192196, -2.249815, -0.468873, -0.779785, -0.291748, -0.320557, 0.079902, 0.002801, 0.062156, 0.999934, -0.000961, -0.011249, -0.002344, -7.976874, -60.066257, -113.964914, , , 0.000000, , , 
01537, , 11.666727, -0.983238, 9.280605, 1.267039, 2.096191, 4.925010, 0.064879, -2.255202, -0.398482, -0.779785, -0.298584, -0.301025, 0.115591, -0.010094, 0.094110, 0.999934, 0.000324, -0.011276, -0.001992, -7.852379, -61.376272, -114.065403, , , 0.000000, , , 
01538, , 15.624369, -2.108030, 13.764651, 1.818046, 4.593986, 10.524634, 0.188012, -1.933863, -0.163926, -0.796875, -0.300537, -0.281494, 0.154886, -0.021338, 0.139129, 0.999952, 0.000940, -0.009669, -0.000820, -7.850757, -62.491280, -113.945079, , , 0.000000, , , 
01539, , 18.391096, -1.759242, 18.835655, 4.227281, 7.356438, 15.169517, -0.243367, -1.393994, 0.079155, -0.801270, -0.293945, -0.279297, 0.182599, -0.017290, 0.189653, 0.999975, -0.001217, -0.006970, 0.000396, -8.295428, -63.274458, -113.602539, , , 0.000000, , , 
01540, , 18.768822, -2.479784, 19.055277, 3.925520, 7.868430, 15.568222, -1.288482, -0.544606, 0.221438, -0.799072, -0.289551, -0.285889, 0.187195, -0.023360, 0.191217, 0.999975, -0.006442, -0.002723, 0.001107, -9.375763, -63.560158, -113.219478, , , 0.000000, , , 
01541, , 16.217581, -4.598896, 14.148314, 0.400531, 6.303189, 11.269045, -1.319834, 0.057542, 0.240825, -0.803467, -0.291748, -0.298828, 0.162271, -0.044859, 0.141735, 0.999977, -0.006599, 0.000288, 0.001204, -10.391999, -63.502780, -112.929379, , , 0.000000, , , 
01542, , 13.426865, -4.660334, 9.853408, -1.215799, 4.222451, 6.913971, -0.654834, 0.273647, 0.161736, -0.799072, -0.296143, -0.311768, 0.134441, -0.046172, 0.098502, 0.999993, -0.003274, 0.001368, 0.000809, -10.888996, -63.320258, -112.793040, , , 0.000000, , , 
01543, , 10.678526, -3.924715, 7.874577, -1.101187, 3.448642, 3.541609, -0.379449, 0.423446, 0.066652, -0.792725, -0.296143, -0.320557, 0.106965, -0.039062, 0.078594, 0.999996, -0.001897, 0.002117, 0.000333, -11.087429, -63.073601, -112.814677, , , 0.000000, , , 
01544, , 8.371687, -3.159304, 6.697131, -0.648626, 3.080499, 0.911465, -0.646532, 0.479847, 0.007189, -0.790527, -0.300537, -0.344238, 0.083879, -0.031374, 0.066872, 0.999992, -0.003233, 0.002399, 0.000036, -11.364934, -62.788648, -112.920875, , , 0.000000, , , 
01545, , 6.616114, -2.190559, 4.762416, -0.516635, 1.845923, -1.592125, -0.863326, 0.452629, -0.143510, -0.790283, -0.307129, -0.352783, 0.066253, -0.021748, 0.047568, 0.999988, -0.004317, 0.002263, -0.000718, -11.602154, -62.549652, -113.211032, , , 0.000000, , , 
01546, , 7.442681, -1.564545, 2.833775, -1.168634, -0.267579, -1.785597, -0.778519, 0.599630, -0.383881, -0.788330, -0.307129, -0.370117, 0.074481, -0.015678, 0.028175, 0.999986, -0.003893, 0.002998, -0.001919, -11.512039, -62.240762, -113.819148, , , 0.000000, , , 
01547, , 7.315651, -2.139616, 3.978408, -1.041151, 0.882862, -1.323834, -0.679495, 1.009447, -0.381087, -0.781738, -0.315918, -0.385010, 0.073316, -0.021401, 0.039487, 0.999980, -0.003397, 0.005047, -0.001905, -11.282865, -61.715692, -114.520158, , , 0.000000, , , 
01548, , 6.666916, -2.743576, -2.147213, -4.741950, -2.823404, -4.701194, -0.930943, 0.653435, -0.636166, -0.783691, -0.320068, -0.393799, 0.066511, -0.027748, -0.021561, 0.999979, -0.004655, 0.003267, -0.003181, -11.032721, -61.403220, -115.415452, , , 0.000000, , , 
01549, , 9.665534, -2.900500, -5.639952, -7.425985, -6.403834, -3.689828, 0.166200, -0.622478, -0.897314, -0.781494, -0.329102, -0.389404, 0.096699, -0.029392, -0.056123, 0.999985, 0.000831, -0.003112, -0.004487, -10.121535, -61.846917, -116.343204, , , 0.000000, , , 
01550, , 15.162542, 0.835588, -0.323068, -2.650354, -6.968156, 3.420432, 0.862474, -2.015694, -1.060425, -0.789795, -0.342041, -0.365479, 0.151689, 0.007561, -0.001668, 0.999926, 0.004312, -0.010078, -0.005302, -8.862388, -63.078486, -117.213046, , , 0.000000, , , 
01551, , 23.368850, 3.005992, 1.353778, -1.605908, -9.940422, 11.531128, 0.398673, -2.003957, -0.823430, -0.796143, -0.346436, -0.352539, 0.233658, 0.029068, 0.015938, 0.999939, 0.001993, -0.010020, -0.004117, -8.029917, -64.282202, -117.887289, , , 0.000000, , , 
01552, , 28.181610, 6.372075, 10.528105, 5.160673, -6.747395, 19.742064, 0.082706, -0.555268, -0.526744, -0.791748, -0.350830, -0.363281, 0.281689, 0.062935, 0.106089, 0.999993, 0.000414, -0.002776, -0.002634, -7.461460, -64.639812, -118.470336, , , 0.000000, , , 
01553, , 19.105467, 8.150553, 11.007194, 8.658696, -4.247206, 11.624544, -3.361886, 1.668394, -0.168984, -0.781494, -0.331055, -0.397949, 0.192026, 0.083160, 0.107084, 0.999824, -0.016808, 0.008341, -0.000845, -8.907048, -63.706116, -119.004717, , , 0.000000, , , 
01554, , 7.002542, -1.737107, -13.953629, -11.028980, -11.182418, -9.663228, -5.092668, 2.449319, 0.291678, -0.773438, -0.309326, -0.430420, 0.068342, -0.020830, -0.139879, 0.999600, -0.025460, 0.012245, 0.001458, -11.650007, -62.298921, -119.200213, , , 0.000000, , , 
01555, , -7.707947, -11.511851, -22.951972, -20.894406, -4.646562, -25.954533, -0.663889, -0.452061, -0.199978, -0.777588, -0.313721, -0.402344, -0.076677, -0.115803, -0.229310, 0.999991, -0.003319, -0.002260, -0.001000, -11.915283, -62.574609, -119.330443, , , 0.000000, , , 
01556, , -2.131293, -2.955678, -8.526786, -6.893133, -3.075519, -15.197044, 3.789675, -3.570710, -1.003509, -0.791992, -0.337646, -0.356934, -0.019922, -0.027827, -0.086170, 0.999649, 0.018946, -0.017851, -0.005017, -9.383007, -64.710168, -119.740294, , , 0.000000, , , 
01557, , 3.933963, 6.674122, 4.532873, 7.077002, -2.224747, -4.761207, 3.624256, -3.422802, -1.167651, -0.793945, -0.348633, -0.322266, 0.038928, 0.065669, 0.047194, 0.999672, 0.018119, -0.017112, -0.005838, -6.433470, -66.743344, -120.697922, , , 0.000000, , , 
01558, , 7.938695, 12.349748, 5.062949, 11.160415, -6.321653, -1.057485, -0.683936, -2.222248, -0.985634, -0.800293, -0.348633, -0.304932, 0.079429, 0.123280, 0.051090, 0.999920, -0.003420, -0.011111, -0.004928, -5.815411, -68.090460, -121.797177, , , 0.000000, , , 
01559, , 11.644753, 5.560824, -7.058635, -1.987342, -12.107890, -1.701922, -1.838920, -2.223060, -1.205630, -0.802490, -0.339844, -0.287842, 0.117556, 0.054258, -0.069787, 0.999878, -0.009194, -0.011115, -0.006028, -5.419507, -69.424480, -123.352687, , , 0.000000, , , 
01560, , 16.861037, 4.755583, -5.415628, -2.661364, -11.641482, 4.101619, 0.516236, -2.734409, -0.958899, -0.808838, -0.344238, -0.261719, 0.169554, 0.046880, -0.051721, 0.999892, 0.002581, -0.013672, -0.004794, -3.939922, -71.056754, -124.610147, , , 0.000000, , , 
01561, , 16.619909, 4.562314, 1.754378, 1.613098, -5.833105, 6.419319, -0.428442, -1.993384, -0.554744, -0.815430, -0.328857, -0.246826, 0.166140, 0.045202, 0.019103, 0.999944, -0.002142, -0.009967, -0.002774, -3.449616, -72.215732, -125.385746, , , 0.000000, , , 
01562, , 12.464929, -1.275917, 1.918343, -1.989355, -0.814243, 2.679682, -1.341319, -1.275705, -0.137736, -0.817871, -0.311279, -0.242676, 0.124514, -0.012712, 0.020063, 0.999957, -0.006706, -0.006378, -0.000689, -4.085225, -72.983106, -125.522850, , , 0.000000, , , 
01563, , 8.065621, -4.452539, 1.479609, -3.859716, 2.048844, -1.568191, -0.771005, -1.310059, -0.169937, -0.824463, -0.298096, -0.229736, 0.080518, -0.044535, 0.015495, 0.999971, -0.003855, -0.006550, -0.000850, -4.385281, -73.737639, -125.671104, , , 0.000000, , , 
01564, , 6.015546, -4.926945, 0.985032, -4.126076, 2.562962, -3.661455, 0.181894, -1.760669, -0.377517, -0.835449, -0.287109, -0.216797, 0.059973, -0.049392, 0.010334, 0.999959, 0.000909, -0.008803, -0.001888, -3.740348, -74.792490, -126.232447, , , 0.000000, , , 
01565, , 5.470474, -5.088014, 0.459804, -4.461684, 2.481220, -4.338958, 1.291517, -2.321428, -0.630864, -0.837646, -0.280518, -0.193115, 0.054488, -0.051083, 0.004902, 0.999907, 0.006457, -0.011607, -0.003154, -1.855633, -76.137513, -127.415261, , , 0.000000, , , 
01566, , 7.399072, -3.396390, 1.232590, -2.938941, 1.753828, -2.323681, 2.399904, -2.882334, -0.856860, -0.848389, -0.276123, -0.162842, 0.073660, -0.034433, 0.012978, 0.999815, 0.011999, -0.014411, -0.004284, 1.648064, -77.822917, -129.601688, , , 0.000000, , , 
01567, , 9.000117, -0.606476, 1.273315, -0.886811, 0.022542, -0.746364, 2.073544, -2.885031, -0.828869, -0.850342, -0.273926, -0.143555, 0.089779, -0.006578, 0.013963, 0.999834, 0.010367, -0.014424, -0.004144, 5.725279, -79.441262, -132.548607, , , 0.000000, , , 
01568, , 8.905163, 0.001912, -0.621643, -1.413805, -1.577295, -1.141104, 1.511155, -2.767864, -0.676262, -0.858887, -0.271729, -0.115479, 0.089126, -0.000241, -0.004984, 0.999870, 0.007555, -0.013839, -0.003381, 10.115556, -80.991504, -136.127074, , , 0.000000, , , 
01569, , 8.762048, 0.731477, -1.351809, -1.118164, -2.352844, -1.307173, 1.940521, -2.845389, -0.585350, -0.872070, -0.260498, -0.100342, 0.087821, 0.007181, -0.012199, 0.999847, 0.009702, -0.014226, -0.002927, 16.026336, -82.503798, -140.976018, , , 0.000000, , , 
01570, , 9.383386, 2.051307, -0.870589, 0.308181, -2.522369, -0.509539, 2.122705, -2.764779, -0.504402, -0.891113, -0.258301, -0.072510, 0.093992, 0.020358, -0.007191, 0.999845, 0.010613, -0.013823, -0.002522, 24.203902, -83.926736, -147.987771, , , 0.000000, , , 
01571, , 9.175456, 1.997144, -0.487386, 0.628825, -1.909196, -0.627474, 2.087904, -2.576921, -0.380487, -0.899658, -0.255859, -0.059570, 0.091843, 0.019838, -0.003483, 0.999861, 0.010439, -0.012884, -0.001902, 34.981722, -85.105834, -157.612932, , , 0.000000, , , 
01572, , 8.448064, 1.721619, -0.367502, 0.643627, -1.397469, -1.321733, 2.317973, -2.504556, -0.335463, -0.904053, -0.251465, -0.040039, 0.084545, 0.017107, -0.002418, 0.999853, 0.011589, -0.012522, -0.001677, 51.158383, -86.056589, -172.505939, , , 0.000000, , , 
01573, , 8.203826, 2.351669, 0.152213, 1.580847, -1.042775, -1.490216, 2.574169, -2.592006, -0.312515, -0.914551, -0.255859, -0.027100, 0.082043, 0.023357, 0.002887, 0.999832, 0.012870, -0.012959, -0.001562, 74.577093, -86.583105, 165.505961, , , 0.000000, , , 
01574, , 8.380022, 2.671504, 0.273801, 2.021693, -0.834298, -1.289383, 2.359663, -2.597993, -0.307079, -0.925293, -0.262451, -0.007568, 0.083793, 0.026543, 0.004140, 0.999845, 0.011798, -0.012989, -0.001535, 101.283727, -86.459613, 140.105552, , , 0.000000, , , 
01575, , 8.513438, 2.266757, -0.262654, 1.511078, -0.852621, -1.171540, 2.205079, -2.560670, -0.322128, -0.933594, -0.275391, 0.005371, 0.085193, 0.022549, -0.001287, 0.999856, 0.011025, -0.012803, -0.001611, 121.656978, -85.740569, 120.952275, , , 0.000000, , , 
01576, , 8.825806, 1.780711, -0.762176, 0.944396, -0.805386, -0.862796, 2.130405, -2.492739, -0.359053, -0.935547, -0.286377, 0.024902, 0.088374, 0.017721, -0.006332, 0.999864, 0.010652, -0.012463, -0.001795, 135.044351, -84.665905, 108.743800, , , 0.000000, , , 
01577, , 9.421158, 0.763879, -0.989707, 0.010923, -0.281204, -0.313354, 2.024941, -2.342943, -0.338716, -0.941650, -0.299561, 0.042236, 0.094331, 0.007571, -0.008716, 0.999879, 0.010124, -0.011714, -0.001694, 143.266108, -83.521514, 101.644713, , , 0.000000, , , 
01578, , 9.839393, -0.634031, -1.050726, -1.201788, 0.508681, 0.016505, 2.070035, -2.233021, -0.289841, -0.935059, -0.308594, 0.061768, 0.098494, -0.006381, -0.009474, 0.999883, 0.010350, -0.011165, -0.001449, 149.226548, -82.337014, 96.834551, , , 0.000000, , , 
01579, , 10.032801, -1.036319, 0.062935, -1.054347, 1.891324, 0.038366, 2.165415, -2.097187, -0.242251, -0.941162, -0.330322, 0.074951, 0.100302, -0.010498, 0.001568, 0.999886, 0.010827, -0.010486, -0.001211, 153.595832, -81.215477, 93.673315, , , 0.000000, , , 
01580, , 10.035039, -0.613982, 0.597676, -0.411315, 2.400636, -0.040218, 2.086296, -1.917403, -0.208856, -0.945068, -0.343506, 0.098877, 0.100281, -0.006313, 0.006873, 0.999899, 0.010431, -0.009587, -0.001044, 157.025624, -80.139482, 91.409624, , , 0.000000, , , 
01581, , 9.914051, 0.048053, 0.637185, 0.255446, 2.350194, -0.163579, 2.015494, -1.792180, -0.177743, -0.940674, -0.350342, 0.116211, 0.099078, 0.000322, 0.007264, 0.999909, 0.010077, -0.008961, -0.000889, 159.727787, -79.147739, 89.836366, , , 0.000000, , , 
01582, , 10.317839, 0.568373, 0.890677, 0.869629, 2.665612, 0.172759, 2.049253, -1.772445, -0.145854, -0.927734, -0.359131, 0.137939, 0.103098, 0.005511, 0.009878, 0.999908, 0.010246, -0.008862, -0.000729, 162.229939, -78.134681, 88.482501, , , 0.000000, , , 
01583, , 10.457080, 1.332529, 1.054041, 1.679478, 2.786626, 0.269367, 1.883148, -1.661262, -0.116535, -0.925293, -0.374756, 0.161621, 0.104485, 0.013159, 0.011533, 0.999921, 0.009415, -0.008306, -0.000583, 164.267289, -77.204441, 87.501185, , , 0.000000, , , 
01584, , 9.828666, 1.171242, 0.402699, 1.354161, 2.272407, -0.266133, 1.518988, -1.530055, -0.094516, -0.920898, -0.376953, 0.172607, 0.098257, 0.011631, 0.004867, 0.999942, 0.007595, -0.007650, -0.000473, 165.926774, -76.320372, 86.691235, , , 0.000000, , , 
01585, , 9.391675, 1.049325, -0.566462, 0.987871, 1.461505, -0.511535, 1.547107, -1.551248, -0.038576, -0.910156, -0.385986, 0.200684, 0.093959, 0.010515, -0.004855, 0.999940, 0.007735, -0.007756, -0.000193, 167.535454, -75.450687, 85.946176, , , 0.000000, , , 
01586, , 9.573070, 1.513298, -0.800459, 1.430663, 1.323442, -0.285179, 1.623244, -1.634835, 0.028168, -0.907959, -0.385986, 0.222412, 0.095789, 0.015207, -0.007099, 0.999934, 0.008116, -0.008174, 0.000141, 169.266320, -74.515420, 85.117915, , , 0.000000, , , 
01587, , 10.466090, 1.568112, -0.099090, 1.751415, 2.366800, 0.352728, 1.413377, -1.586048, 0.070695, -0.901611, -0.383789, 0.237549, 0.104658, 0.015721, -0.000050, 0.999944, 0.007067, -0.007930, 0.000353, 170.765004, -73.627930, 84.401206, , , 0.000000, , , 
01588, , 10.851951, 1.052594, 0.624302, 1.494030, 3.433930, 0.445799, 1.142809, -1.309596, 0.045795, -0.899170, -0.390625, 0.254883, 0.108473, 0.010512, 0.007014, 0.999962, 0.005714, -0.006548, 0.000229, 171.910166, -72.871251, 83.889962, , , 0.000000, , , 
01589, , 10.348113, 0.662766, 1.276773, 1.281037, 4.109511, -0.293104, 0.997567, -1.100435, -0.028543, -0.895020, -0.388428, 0.265625, 0.103410, 0.006547, 0.013370, 0.999972, 0.004988, -0.005502, -0.000143, 172.696251, -72.244705, 83.664742, , , 0.000000, , , 
01590, , 10.869501, 1.068225, 1.864576, 1.836587, 4.835437, -0.014329, 1.088620, -1.073653, -0.076219, -0.886475, -0.392822, 0.282959, 0.108597, 0.010537, 0.019287, 0.999971, 0.005443, -0.005368, -0.000381, 173.437269, -71.613935, 83.542133, , , 0.000000, , , 
01591, , 11.762633, 2.271205, 1.990746, 3.068480, 5.093780, 0.775845, 1.258197, -0.970804, -0.054045, -0.890869, -0.386230, 0.298096, 0.117534, 0.022552, 0.020620, 0.999968, 0.006291, -0.004854, -0.000270, 174.241291, -71.058051, 83.454025, , , 0.000000, , , 
01592, , 12.671828, 3.733988, 1.483400, 4.434393, 4.751818, 1.783554, 1.254495, -0.815347, 0.008646, -0.888672, -0.384277, 0.304443, 0.126654, 0.037249, 0.015584, 0.999972, 0.006272, -0.004077, 0.000043, 175.114185, -70.583723, 83.291365, , , 0.000000, , , 
01593, , 13.720764, 4.586033, 0.696726, 5.175962, 4.334976, 3.001070, 1.069546, -0.628931, 0.052518, -0.888672, -0.382080, 0.313232, 0.137172, 0.045857, 0.007644, 0.999981, 0.005348, -0.003145, 0.000263, 175.888365, -70.227297, 83.119697, , , 0.000000, , , 
01594, , 14.271078, 4.051285, -0.023059, 4.564214, 4.058020, 3.706812, 0.804434, -0.398825, 0.033517, -0.888916, -0.368896, 0.308594, 0.142704, 0.040536, 0.000217, 0.999990, 0.004022, -0.001994, 0.000168, 176.447410, -69.995916, 83.015332, , , 0.000000, , , 
01595, , 13.834038, 2.314837, -0.128859, 2.833696, 4.183354, 3.272619, 0.433549, -0.236547, -0.000314, -0.888916, -0.364502, 0.308594, 0.138342, 0.023151, -0.001075, 0.999997, 0.002168, -0.001183, -0.000002, 176.715221, -69.861071, 82.994296, , , 0.000000, , , 
01596, , 13.172537, 0.153810, 0.187980, 0.737401, 4.657847, 2.489157, 0.230450, -0.153704, -0.009587, -0.899658, -0.357666, 0.306396, 0.131724, 0.001530, 0.001983, 0.999999, 0.001152, -0.000769, -0.000048, 176.840236, -69.772534, 83.001324, , , 0.000000, , , 
01597, , 13.119861, -0.842413, 1.688801, 0.006956, 6.211999, 1.896431, 0.298242, -0.096383, 0.004275, -0.908447, -0.344482, 0.304199, 0.131191, -0.008447, 0.016939, 0.999999, 0.001491, -0.000482, 0.000021, 177.023552, -69.717980, 82.987693, , , 0.000000, , , 
01598, , 14.302596, -0.928944, 3.454429, 0.260541, 8.261870, 2.395256, 0.364507, 0.078373, 0.071869, -0.917236, -0.328857, 0.301758, 0.143043, -0.009301, 0.034471, 0.999998, 0.001823, 0.000392, 0.000359, 177.333144, -69.769622, 82.879672, , , 0.000000, , , 
01599, , 15.971811, -0.549464, 4.463398, 0.867623, 9.669893, 3.643263, 0.494063, 0.391792, 0.200330, -0.934814, -0.302490, 0.297363, 0.159811, -0.005444, 0.044307, 0.999995, 0.002470, 0.001959, 0.001002, 177.901661, -69.999156, 82.575315, , , 0.000000, , , 
01600, , 16.340858, 0.449503, 5.520107, 2.031078, 10.521688, 3.710041, 0.636103, 0.881115, 0.282144, -0.947998, -0.275879, 0.277588, 0.163643, 0.004552, 0.054495, 0.999984, 0.003180, 0.004406, 0.001411, 178.671459, -70.521583, 82.143802, , , 0.000000, , , 
01601, , 16.176271, 1.295141, 5.676728, 2.865297, 10.319054, 3.636324, 0.675197, 1.576012, 0.287062, -0.972412, -0.229492, 0.272949, 0.162185, 0.012995, 0.055534, 0.999962, 0.003376, 0.007880, 0.001435, 179.491008, -71.427613, 81.685760, , , 0.000000, , , 
01602, , 16.020443, 1.757729, 5.243016, 3.225563, 9.522882, 3.830272, 0.654866, 2.462934, 0.360745, -0.994629, -0.174316, 0.255371, 0.160802, 0.017699, 0.050510, 0.999917, 0.003274, 0.012314, 0.001804, -179.497102, -72.861387, 81.015785, , , 0.000000, , , 
01603, , 16.079545, 1.640031, 3.528200, 2.866037, 7.523884, 4.638624, 0.430577, 3.422509, 0.642213, -1.010742, -0.101807, 0.252686, 0.161315, 0.016846, 0.032560, 0.999846, 0.002153, 0.017112, 0.003211, -177.825314, -74.813946, 79.531935, , , 0.000000, , , 
01604, , 15.711833, -0.131149, 0.231356, 0.693214, 3.921286, 5.386950, 0.794075, 4.586860, 1.218379, -1.018311, -0.035889, 0.243408, 0.157120, -0.000354, -0.001293, 0.999711, 0.003970, 0.022932, 0.006091, -173.778356, -77.415649, 75.832095, , , 0.000000, , , 
01605, , 10.801276, 0.996296, 4.369805, 2.166903, 6.143385, -0.102115, -0.538892, 4.441964, 0.791738, -1.025391, 0.003662, 0.256104, 0.108906, 0.010506, 0.041258, 0.999742, -0.002694, 0.022208, 0.003958, -170.072015, -79.874001, 71.737418, , , 0.000000, , , 
01606, , 15.271169, -0.312576, -3.484872, -0.017388, -1.173134, 5.808737, -2.165244, 4.745575, 0.472891, -1.023438, 0.016846, 0.260254, 0.151836, -0.003169, -0.038425, 0.999657, -0.010825, 0.023725, 0.002364, -165.922236, -82.514576, 66.283985, , , 0.000000, , , 
01607, , 14.605565, -0.361664, -6.279822, -0.727018, -4.696530, 5.361415, -1.727346, 4.895663, 0.223261, -1.016602, -0.000732, 0.267090, 0.144465, -0.004017, -0.066314, 0.999663, -0.008636, 0.024476, 0.001116, -157.672214, -85.148682, 56.992576, , , 0.000000, , , 
01608, , 15.312381, -1.564102, -7.408105, -2.320413, -6.227669, 5.921870, -1.339596, 4.656537, -0.095018, -1.007812, -0.029541, 0.280273, 0.151338, -0.016225, -0.077511, 0.999706, -0.006697, 0.023280, -0.000475, -136.130455, -87.485047, 34.642902, , , 0.000000, , , 
01609, , 16.514690, -2.592714, -6.898297, -3.421383, -6.159306, 6.841247, -0.356164, 4.217628, -0.280386, -1.004883, -0.073242, 0.271729, 0.163607, -0.026284, -0.072398, 0.999775, -0.001781, 0.021087, -0.001402, -69.273061, -88.311457, -32.453095, , , 0.000000, , , 
01610, , 17.462804, -1.609800, -4.373170, -2.133830, -4.560362, 7.544570, 0.065383, 3.870291, -0.378034, -1.008301, -0.117188, 0.250488, 0.173707, -0.016412, -0.047105, 0.999811, 0.000327, 0.019350, -0.001890, -25.617013, -86.850054, -76.104007, , , 0.000000, , , 
01611, , 18.288182, -1.511712, -3.541845, -2.070656, -4.466948, 8.215126, -0.118204, 3.893475, -0.404568, -1.011963, -0.156494, 0.207520, 0.182115, -0.015508, -0.038960, 0.999808, -0.000591, 0.019466, -0.002023, -12.626164, -84.804407, -89.195298, , , 0.000000, , , 
01612, , 18.545600, -0.355325, -3.827667, -1.221313, -5.681155, 8.212385, 0.079152, 3.907992, -0.433588, -0.994629, -0.185059, 0.145020, 0.184653, -0.003938, -0.041892, 0.999807, 0.000396, 0.019539, -0.002168, -6.888912, -82.617225, -94.921441, , , 0.000000, , , 
01613, , 17.836882, 0.801299, -2.540240, -0.042069, -5.241060, 7.442325, -0.084505, 3.976267, -0.446486, -0.970947, -0.205078, 0.097656, 0.177834, 0.007604, -0.028945, 0.999800, -0.000422, 0.019880, -0.002232, -3.809388, -80.371149, -98.083925, , , 0.000000, , , 
01614, , 16.424216, -0.356607, -2.344722, -1.326115, -5.212026, 5.885022, -0.551754, 4.036212, -0.481518, -0.943115, -0.213867, 0.046143, 0.163715, -0.004031, -0.026744, 0.999790, -0.002759, 0.020180, -0.002407, -2.055549, -78.060544, -100.191605, , , 0.000000, , , 
01615, , 15.151055, -0.886660, -1.623979, -1.868222, -4.705120, 4.585953, 0.049089, 3.781802, -0.688722, -0.917236, -0.231689, 0.009521, 0.151136, -0.009383, -0.019102, 0.999815, 0.000245, 0.018908, -0.003443, -0.139227, -75.900547, -102.129643, , , 0.000000, , , 
01616, , 14.457994, 0.676627, -0.086529, -0.219007, -3.920695, 4.117559, -0.011148, 3.852664, -0.917011, -0.904053, -0.253662, -0.022705, 0.144557, 0.006103, -0.003651, 0.999804, -0.000056, 0.019262, -0.004585, 1.674199, -73.676092, -104.016445, , , 0.000000, , , 
01617, , 12.831858, 0.519921, -0.778916, -0.640156, -4.569965, 2.196251, -0.781988, 4.080947, -0.946844, -0.878174, -0.275879, -0.065674, 0.128146, 0.004555, -0.010424, 0.999773, -0.003910, 0.020403, -0.004734, 2.665905, -71.317942, -105.526223, , , 0.000000, , , 
01618, , 10.985671, 0.145881, -1.927141, -1.302615, -5.383436, -0.131579, -1.191666, 4.025261, -0.867911, -0.862793, -0.293457, -0.111084, 0.109444, 0.000860, -0.021483, 0.999770, -0.005958, 0.020125, -0.004339, 3.038656, -68.983688, -106.649412, , , 0.000000, , , 
01619, , 9.102892, 0.316551, -2.506146, -1.254156, -5.608784, -2.315997, -1.575518, 3.801809, -0.710078, -0.843506, -0.304688, -0.154053, 0.090540, 0.002637, -0.026808, 0.999782, -0.007877, 0.019008, -0.003550, 2.860807, -66.786437, -107.432209, , , 0.000000, , , 
01620, , 6.888933, -0.000221, -2.486607, -1.439640, -4.884741, -4.549477, -1.696652, 3.492479, -0.535073, -0.826172, -0.317871, -0.184326, 0.068440, -0.000403, -0.026062, 0.999808, -0.008483, 0.017461, -0.002675, 2.365340, -64.772625, -107.955909, , , 0.000000, , , 
01621, , 5.844371, 0.429574, -2.047583, -0.890950, -4.334432, -5.459627, -1.575676, 3.116524, -0.422675, -0.815430, -0.324707, -0.214355, 0.058124, 0.004006, -0.021416, 0.999845, -0.007878, 0.015582, -0.002113, 1.823584, -62.978448, -108.358478, , , 0.000000, , , 
01622, , 4.782762, 0.927191, -1.650253, -0.244937, -3.789994, -6.344046, -1.709148, 2.905964, -0.249291, -0.794189, -0.326904, -0.242432, 0.047592, 0.009067, -0.017273, 0.999857, -0.008545, 0.014529, -0.001246, 1.035493, -61.313745, -108.575625, , , 0.000000, , , 
01623, , 3.449055, 0.551201, -1.664280, -0.464711, -3.156993, -7.625006, -1.833260, 2.660540, -0.079325, -0.783447, -0.329346, -0.272705, 0.034267, 0.005343, -0.017149, 0.999869, -0.009166, 0.013302, -0.000397, 0.040774, -59.788161, -108.640040, , , 0.000000, , , 
01624, , 2.323839, 0.132744, -1.654778, -0.721742, -2.514410, -8.667028, -1.751947, 2.273344, 0.043149, -0.772949, -0.324951, -0.296387, 0.023048, 0.001186, -0.016821, 0.999897, -0.008759, 0.011366, 0.000216, -0.985400, -58.491737, -108.614353, , , 0.000000, , , 
01625, , 1.907550, -0.414911, -1.639326, -1.195423, -2.121548, -9.058966, -1.680892, 1.830546, 0.151334, -0.762207, -0.327148, -0.320068, 0.018928, -0.004273, -0.016531, 0.999923, -0.008404, 0.009152, 0.000757, -2.042213, -57.440165, -108.504261, , , 0.000000, , , 
01626, , 1.852970, -0.944370, -1.955033, -1.803240, -2.151774, -9.297370, -1.605979, 1.424148, 0.245910, -0.755859, -0.322754, -0.339600, 0.018402, -0.009578, -0.019605, 0.999942, -0.008030, 0.007121, 0.001230, -3.121983, -56.627025, -108.314537, , , 0.000000, , , 
01627, , 1.894535, -1.396599, -2.339044, -2.377073, -2.291426, -9.481542, -1.516210, 1.084964, 0.315611, -0.749756, -0.316162, -0.354736, 0.018841, -0.014114, -0.023386, 0.999955, -0.007581, 0.005425, 0.001578, -4.201331, -55.994317, -108.061863, , , 0.000000, , , 
01628, , 1.697295, -1.702624, -2.726127, -2.778175, -2.343283, -9.858874, -1.484869, 0.826030, 0.329158, -0.745361, -0.314209, -0.367676, 0.016889, -0.017201, -0.027204, 0.999963, -0.007424, 0.004130, 0.001646, -5.272075, -55.517729, -107.797354, , , 0.000000, , , 
01629, , 1.422490, -1.753645, -3.157543, -2.951475, -2.468136, -10.328198, -1.425208, 0.560962, 0.296383, -0.743408, -0.307617, -0.378662, 0.014163, -0.017740, -0.031489, 0.999970, -0.007126, 0.002805, 0.001482, -6.285738, -55.180111, -107.558239, , , 0.000000, , , 
01630, , 1.248664, -1.642735, -3.568050, -2.995324, -2.687022, -10.705135, -1.360439, 0.305372, 0.242142, -0.741455, -0.298828, -0.387207, 0.012452, -0.016655, -0.035587, 0.999975, -0.006802, 0.001527, 0.001211, -7.237365, -55.003277, -107.351580, , , 0.000000, , , 
01631, , 0.923228, -1.669223, -3.875976, -3.110670, -2.691257, -11.132719, -1.275724, 0.044798, 0.193660, -0.739502, -0.292236, -0.389404, 0.009240, -0.016930, -0.038654, 0.999979, -0.006379, 0.000224, 0.000968, -8.119791, -54.962315, -107.167061, , , 0.000000, , , 
01632, , 0.580835, -2.004895, -3.881115, -3.395777, -2.340662, -11.365037, -1.183955, -0.245333, 0.158396, -0.743896, -0.281250, -0.389648, 0.005872, -0.020274, -0.038684, 0.999981, -0.005920, -0.001227, 0.000792, -8.963652, -55.103902, -106.970075, , , 0.000000, , , 
01633, , 0.292489, -2.242974, -3.803846, -3.565561, -2.004139, -11.502566, -1.027331, -0.630308, 0.134540, -0.743896, -0.283447, -0.383057, 0.003060, -0.022623, -0.037913, 0.999982, -0.005137, -0.003152, 0.000673, -9.746131, -55.447063, -106.734661, , , 0.000000, , , 
01634, , 0.724885, -1.837158, -3.499422, -3.176065, -2.172954, -10.969053, -0.874115, -1.115163, 0.102921, -0.752686, -0.270020, -0.370117, 0.007453, -0.018520, -0.034872, 0.999975, -0.004371, -0.005576, 0.000515, -10.508876, -56.084149, -106.424871, , , 0.000000, , , 
01635, , 1.947085, -0.732505, -2.406830, -1.946040, -2.485086, -9.415761, -0.728256, -1.602604, 0.048393, -0.763184, -0.265625, -0.359375, 0.019665, -0.007408, -0.023884, 0.999961, -0.003641, -0.008013, 0.000242, -11.228611, -56.980087, -106.062744, , , 0.000000, , , 
01636, , 3.485722, 0.058791, -0.540521, -0.684769, -2.223298, -7.160615, -0.687138, -2.041810, -0.042866, -0.771973, -0.256836, -0.333740, 0.034910, 0.000563, -0.005051, 0.999942, -0.003436, -0.010209, -0.000214, -11.969630, -58.151668, -105.659316, , , 0.000000, , , 
01637, , 5.148000, -0.124089, 1.667309, -0.110144, -1.260635, -4.550145, -0.265780, -2.502480, -0.229657, -0.782471, -0.263428, -0.309814, 0.051265, -0.001277, 0.017317, 0.999920, -0.001329, -0.012512, -0.001148, -12.409483, -59.580414, -105.323824, , , 0.000000, , , 
01638, , 7.573161, -0.659590, 5.138944, 0.635350, 0.601812, -0.678952, 0.485952, -2.763707, -0.474634, -0.795410, -0.258789, -0.286133, 0.074996, -0.006901, 0.052413, 0.999899, 0.002430, -0.013818, -0.002373, -12.275427, -61.207207, -105.165156, , , 0.000000, , , 
01639, , 10.568746, -2.058794, 10.314435, 1.252952, 4.137176, 4.456991, 1.004181, -2.655441, -0.596068, -0.805908, -0.265381, -0.258057, 0.104244, -0.021422, 0.104429, 0.999895, 0.005021, -0.013277, -0.002980, -11.664338, -62.765916, -105.206016, , , 0.000000, , , 
01640, , 15.406789, -2.746538, 17.070189, 2.877880, 8.081391, 11.697483, 1.196838, -2.125532, -0.481973, -0.818848, -0.260986, -0.234375, 0.152175, -0.028861, 0.172156, 0.999923, 0.005984, -0.010627, -0.002410, -10.931355, -64.033495, -105.265348, , , 0.000000, , , 
01641, , 19.464512, -1.342586, 21.478304, 5.549580, 9.746301, 16.948916, -0.173527, -1.484512, -0.136156, -0.829346, -0.269531, -0.232178, 0.193035, -0.013370, 0.216231, 0.999972, -0.000868, -0.007422, -0.000681, -11.211456, -64.882751, -105.065525, , , 0.000000, , , 
01642, , 20.117251, -3.835723, 20.017845, 2.918447, 9.571217, 17.019936, -1.587012, -0.669145, 0.226426, -0.822754, -0.269531, -0.234131, 0.200543, -0.036536, 0.201145, 0.999962, -0.007935, -0.003346, 0.001132, -12.578623, -65.241769, -104.565780, , , 0.000000, , , 
01643, , 17.689272, -5.461989, 15.197086, -0.025746, 7.391717, 12.969995, -1.317669, -0.048454, 0.357600, -0.820557, -0.276123, -0.251465, 0.176952, -0.053301, 0.152368, 0.999977, -0.006588, -0.000242, 0.001788, -13.778716, -65.221673, -104.075977, , , 0.000000, , , 
01644, , 15.114916, -5.667600, 10.348491, -1.942774, 4.603122, 8.699739, -0.312408, 0.244701, 0.271437, -0.818359, -0.278320, -0.258057, 0.151352, -0.056309, 0.103388, 0.999997, -0.001562, 0.001224, 0.001357, -14.226649, -65.051069, -103.785201, , , 0.000000, , , 
01645, , 12.753882, -4.781371, 9.123965, -1.449896, 4.132177, 5.985799, 0.000088, 0.453981, 0.110051, -0.814209, -0.284912, -0.270752, 0.127772, -0.047743, 0.090950, 0.999997, 0.000000, 0.002270, 0.000550, -14.219715, -64.783042, -103.793220, , , 0.000000, , , 
01646, , 10.106993, -4.866929, 6.896890, -2.267272, 3.422839, 2.699245, -0.349974, 0.772716, -0.012752, -0.809814, -0.291504, -0.283691, 0.101333, -0.048555, 0.068663, 0.999991, -0.001750, 0.003864, -0.000064, -14.197927, -64.355445, -104.046627, , , 0.000000, , , 
01647, , 7.086589, -4.564750, 3.838297, -3.081161, 2.082033, -1.329731, -0.176673, 0.806531, -0.224561, -0.807373, -0.306885, -0.296631, 0.070969, -0.045693, 0.038137, 0.999991, -0.000883, 0.004033, -0.001123, -13.809910, -63.937803, -104.590705, , , 0.000000, , , 
01648, , 7.844018, -3.056209, 3.746139, -1.923848, 0.977182, -0.854676, 0.484892, 0.467381, -0.558519, -0.805176, -0.317871, -0.309570, 0.078441, -0.030872, 0.037203, 0.999990, 0.002424, 0.002337, -0.002793, -12.798902, -63.749176, -105.416777, , , 0.000000, , , 
01649, , 11.747125, -2.411887, 5.855384, -0.981746, 0.644998, 3.480764, 0.604552, 0.790206, -0.592790, -0.794189, -0.326904, -0.318115, 0.117629, -0.024643, 0.058015, 0.999983, 0.003023, 0.003951, -0.002964, -11.591712, -63.377955, -106.378531, , , 0.000000, , , 
01650, , 12.045188, -2.273639, 3.815099, -1.923861, -1.208012, 2.822529, 0.035358, 1.017678, -0.579544, -0.791992, -0.335693, -0.328857, 0.120577, -0.023092, 0.037534, 0.999983, 0.000177, 0.005088, -0.002898, -10.734317, -62.868601, -107.327296, , , 0.000000, , , 
01651, , 13.225282, 1.062341, 2.744864, 0.291979, -4.093887, 3.099502, -0.026243, 0.325654, -0.820046, -0.791748, -0.351074, -0.324463, 0.132339, 0.010084, 0.027232, 0.999990, -0.000131, 0.001628, -0.004100, -9.783690, -62.768232, -108.413278, , , 0.000000, , , 
01652, , 16.373253, 7.776678, 3.668122, 6.082985, -7.762584, 5.831891, -0.931117, -0.613035, -1.063350, -0.789551, -0.351074, -0.328613, 0.164031, 0.077066, 0.036824, 0.999970, -0.004656, -0.003065, -0.005317, -9.280145, -63.216778, -109.587333, , , 0.000000, , , 
01653, , 18.051930, 7.489552, -2.763359, 2.556204, -13.274233, 4.569913, -1.692106, -0.720852, -0.726820, -0.791748, -0.350830, -0.335205, 0.180889, 0.074005, -0.027611, 0.999951, -0.008460, -0.003604, -0.003634, -9.562084, -63.691950, -110.356369, , , 0.000000, , , 
01654, , 15.166352, 4.231316, -1.530857, 0.603165, -9.507114, 2.817276, -1.261646, -0.323656, -0.492849, -0.783203, -0.351074, -0.337402, 0.151792, 0.041843, -0.015328, 0.999976, -0.006308, -0.001618, -0.002464, -9.795920, -63.930706, -110.906553, , , 0.000000, , , 
01655, , 9.734053, 0.984606, -6.092728, -3.640919, -9.145735, -3.817730, -1.860489, 0.789648, -0.147960, -0.779053, -0.344482, -0.350342, 0.097106, 0.009204, -0.061399, 0.999949, -0.009302, 0.003948, -0.000740, -10.530762, -63.499911, -111.276327, , , 0.000000, , , 
01656, , 1.819383, -4.204202, -12.836074, -10.255633, -8.193299, -13.478368, -1.727152, 0.544297, -0.077483, -0.781494, -0.331299, -0.354736, 0.017829, -0.043156, -0.128040, 0.999959, -0.008636, 0.002721, -0.000387, -11.324693, -63.218260, -111.499298, , , 0.000000, , , 
01657, , -2.021613, -4.894052, -9.082217, -8.393349, -3.383171, -15.163402, 0.230327, -1.436854, -0.657329, -0.783203, -0.346680, -0.320068, -0.019723, -0.048770, -0.091021, 0.999968, 0.001152, -0.007184, -0.003287, -10.764143, -64.098043, -111.977968, , , 0.000000, , , 
01658, , 1.715292, 1.807783, -0.040080, 1.242484, -1.642358, -8.409017, 1.345984, -2.882149, -1.042679, -0.791748, -0.344482, -0.291992, 0.017249, 0.017989, -0.000031, 0.999860, 0.006730, -0.014410, -0.005213, -9.372025, -65.851817, -112.670570, , , 0.000000, , , 
01659, , 7.549912, 8.547647, 2.404012, 7.298606, -5.327686, -2.451716, 0.177463, -2.574086, -1.387591, -0.793701, -0.351074, -0.272461, 0.075771, 0.084929, 0.025090, 0.999893, 0.000887, -0.012870, -0.006938, -7.964530, -67.429396, -114.093257, , , 0.000000, , , 
01660, , 11.534237, 7.100496, -4.743073, 1.835209, -11.328598, -1.196616, -0.738346, -2.415000, -1.286369, -0.796143, -0.344482, -0.250977, 0.116359, 0.070086, -0.046290, 0.999900, -0.003692, -0.012075, -0.006432, -7.022348, -68.922011, -115.567484, , , 0.000000, , , 
01661, , 16.246114, 5.287647, -6.478318, -1.326233, -12.960445, 2.997739, 0.318282, -2.729682, -1.199657, -0.808838, -0.348877, -0.227295, 0.163638, 0.051998, -0.062472, 0.999888, 0.001591, -0.013648, -0.005998, -5.448486, -70.551216, -117.051040, , , 0.000000, , , 
01662, , 16.737781, 4.099237, -1.027790, 0.453599, -7.773495, 5.594013, 0.096196, -2.292296, -0.743745, -0.808838, -0.340088, -0.209961, 0.167632, 0.040374, -0.008338, 0.999927, 0.000481, -0.011461, -0.003719, -4.469331, -71.929637, -118.027627, , , 0.000000, , , 
01663, , 12.782066, 0.595666, 1.351805, -0.629922, -2.638452, 2.765127, -0.886076, -1.654394, -0.467136, -0.815430, -0.333496, -0.201416, 0.127717, 0.005721, 0.014549, 0.999953, -0.004430, -0.008272, -0.002336, -4.364637, -72.895080, -118.670445, , , 0.000000, , , 
01664, , 9.358284, -2.309505, 1.442055, -2.467532, 0.074240, -0.384319, -0.841067, -1.578955, -0.415251, -0.815430, -0.322510, -0.195068, 0.093416, -0.023226, 0.015256, 0.999958, -0.004205, -0.007895, -0.002076, -4.260838, -73.851393, -119.281487, , , 0.000000, , , 
01665, , 6.965409, -4.212087, 0.843396, -3.986836, 1.366843, -2.798054, -0.433929, -1.700886, -0.437375, -0.822021, -0.311523, -0.182129, 0.069486, -0.042254, 0.009117, 0.999959, -0.002170, -0.008504, -0.002187, -3.862759, -74.841058, -119.953497, , , 0.000000, , , 
01666, , 5.831861, -5.906097, 0.117486, -5.594042, 2.104369, -4.052160, 0.253612, -1.992524, -0.539084, -0.826416, -0.302734, -0.158447, 0.058144, -0.059220, 0.001680, 0.999946, 0.001268, -0.009962, -0.002695, -2.769531, -76.035145, -120.933845, , , 0.000000, , , 
01667, , 6.119000, -6.783181, 0.220954, -6.292655, 2.703510, -3.763269, 1.763118, -2.673548, -0.712891, -0.837158, -0.302490, -0.130371, 0.060916, -0.068070, 0.002426, 0.999865, 0.008815, -0.013367, -0.003564, -0.184654, -77.576997, -122.551415, , , 0.000000, , , 
01668, , 7.648595, -2.634967, 1.191684, -2.469492, 1.118817, -2.098365, 3.307915, -3.191803, -0.842263, -0.847900, -0.298096, -0.100098, 0.076175, -0.026877, 0.012693, 0.999727, 0.016538, -0.015958, -0.004211, 4.418427, -79.423827, -125.317058, , , 0.000000, , , 
01669, , 9.384114, 1.794014, 1.084280, 1.126631, -1.249293, -0.346105, 2.357093, -2.988686, -0.796756, -0.847900, -0.293945, -0.067627, 0.093733, 0.017426, 0.012451, 0.999811, 0.011785, -0.014942, -0.003984, 9.625123, -81.068372, -129.229651, , , 0.000000, , , 
01670, , 8.282918, 1.597373, -2.540842, -0.608078, -3.860124, -1.917251, 1.398760, -2.810342, -0.595065, -0.858643, -0.293701, -0.052734, 0.083222, 0.015898, -0.024129, 0.999872, 0.006994, -0.014051, -0.002975, 15.200609, -82.605073, -134.054453, , , 0.000000, , , 
01671, , 8.582802, 1.958220, -2.642366, -0.247142, -3.913778, -1.500398, 1.994699, -3.066308, -0.564355, -0.864990, -0.291504, -0.026855, 0.086273, 0.019593, -0.024908, 0.999829, 0.009973, -0.015331, -0.002822, 24.062250, -84.154594, -141.824473, , , 0.000000, , , 
01672, , 9.362455, 3.698608, -0.239157, 2.470546, -2.359411, -0.341060, 1.993788, -2.938071, -0.485458, -0.869141, -0.289307, -0.002930, 0.093732, 0.036771, -0.000648, 0.999839, 0.009968, -0.014690, -0.002427, 37.593721, -85.500034, -154.264396, , , 0.000000, , , 
01673, , 9.051402, 2.918759, -0.475971, 1.802772, -1.909773, -0.660136, 1.579213, -2.708203, -0.374937, -0.877930, -0.278320, 0.014160, 0.090620, 0.029048, -0.003303, 0.999875, 0.007896, -0.013540, -0.001875, 56.733570, -86.408826, -172.543987, , , 0.000000, , , 
01674, , 8.268478, 1.731895, -1.169843, 0.588306, -1.753242, -1.487411, 1.830262, -2.702098, -0.329170, -0.886230, -0.289307, 0.027344, 0.082860, 0.017282, -0.010421, 0.999866, 0.009151, -0.013510, -0.001646, 84.175788, -86.773091, 161.017075, , , 0.000000, , , 
01675, , 7.893239, 1.533267, -0.975503, 0.610235, -1.266764, -1.836272, 2.219608, -2.785369, -0.319363, -0.892578, -0.289307, 0.051025, 0.079081, 0.015305, -0.008484, 0.999840, 0.011097, -0.013926, -0.001597, 111.612069, -86.361602, 134.806973, , , 0.000000, , , 
01676, , 7.974036, 1.207676, -0.927958, 0.426594, -0.850543, -1.750796, 2.272976, -2.810311, -0.310413, -0.892578, -0.291504, 0.070557, 0.079878, 0.012049, -0.008021, 0.999835, 0.011364, -0.014051, -0.001552, 131.142617, -85.339841, 116.532586, , , 0.000000, , , 
01677, , 8.253695, 0.640131, -1.375470, -0.183352, -0.796281, -1.460908, 2.344232, -2.821866, -0.314391, -0.894531, -0.300293, 0.094238, 0.082729, 0.006423, -0.012513, 0.999831, 0.011721, -0.014109, -0.001572, 142.925639, -84.028088, 106.048232, , , 0.000000, , , 
01678, , 8.754451, 0.394801, -1.677248, -0.433943, -0.699081, -0.928613, 2.426639, -2.808479, -0.307210, -0.894287, -0.309082, 0.120361, 0.087774, 0.004006, -0.015493, 0.999827, 0.012132, -0.014042, -0.001536, 150.755737, -82.551569, 99.565409, , , 0.000000, , , 
01679, , 9.566053, -0.093075, -1.814984, -0.856848, -0.322231, -0.118951, 2.421496, -2.690795, -0.270839, -0.900635, -0.317871, 0.146240, 0.095892, -0.000851, -0.016871, 0.999835, 0.012107, -0.013453, -0.001354, 155.987993, -81.102579, 95.681136, , , 0.000000, , , 
01680, , 9.949743, -0.445761, -1.295309, -0.939853, 0.575123, 0.170040, 2.402124, -2.542325, -0.226783, -0.894043, -0.324463, 0.155029, 0.099647, -0.004425, -0.011740, 0.999846, 0.012010, -0.012711, -0.001134, 159.993741, -79.669060, 93.015588, , , 0.000000, , , 
01681, , 10.018979, -0.454491, -0.813295, -0.736855, 1.265119, 0.142230, 2.122978, -2.301465, -0.194415, -0.891846, -0.331299, 0.180908, 0.100270, -0.004564, -0.007028, 0.999877, 0.010614, -0.011507, -0.000972, 162.831977, -78.383075, 91.363273, , , 0.000000, , , 
01682, , 9.640415, -0.726922, -1.141163, -1.026985, 1.152384, -0.201093, 1.877391, -2.044062, -0.169555, -0.887451, -0.337891, 0.200439, 0.096508, -0.007250, -0.010494, 0.999903, 0.009387, -0.010220, -0.000848, 165.057317, -77.196754, 90.188521, , , 0.000000, , , 
01683, , 9.594319, -0.581140, -0.565093, -0.693998, 1.821114, -0.383615, 1.981760, -1.928368, -0.173210, -0.885254, -0.344482, 0.217773, 0.095987, -0.005844, -0.004783, 0.999904, 0.009908, -0.009642, -0.000866, 166.913220, -76.100161, 89.447727, , , 0.000000, , , 
01684, , 10.120171, 0.836426, 0.906800, 1.058549, 3.197897, -0.190363, 2.018341, -1.838429, -0.178676, -0.874268, -0.353516, 0.235107, 0.101120, 0.008176, 0.010081, 0.999906, 0.010091, -0.009192, -0.000893, 168.616990, -75.016270, 88.884419, , , 0.000000, , , 
01685, , 10.723507, 1.637231, 1.283048, 1.929981, 3.738154, 0.267886, 1.777791, -1.659599, -0.191086, -0.867920, -0.353516, 0.259033, 0.107138, 0.016150, 0.013864, 0.999926, 0.008889, -0.008298, -0.000955, 169.886649, -74.061033, 88.623548, , , 0.000000, , , 
01686, , 10.892354, 1.509561, 1.087535, 1.768753, 3.826698, 0.401479, 1.836783, -1.603741, -0.205503, -0.859131, -0.364746, 0.274170, 0.108846, 0.014878, 0.011886, 0.999925, 0.009184, -0.008019, -0.001027, 171.114260, -73.105640, 88.443026, , , 0.000000, , , 
01687, , 11.313416, 1.574741, 1.111865, 1.835520, 4.160363, 0.724279, 1.958849, -1.630155, -0.195634, -0.852783, -0.360352, 0.293701, 0.113053, 0.015521, 0.012193, 0.999918, 0.009794, -0.008151, -0.000978, 172.311276, -72.164553, 88.364388, , , 0.000000, , , 
01688, , 11.777729, 1.206468, 1.756612, 1.570093, 5.172988, 0.865656, 1.953688, -1.624537, -0.142168, -0.848389, -0.364990, 0.317383, 0.117637, 0.011802, 0.018638, 0.999919, 0.009768, -0.008122, -0.000711, 173.575547, -71.204717, 88.214074, , , 0.000000, , , 
01689, , 9.965863, 1.002883, 2.416491, 1.420989, 5.407766, -1.158319, 1.682622, -1.424320, -0.069282, -0.840088, -0.356201, 0.336914, 0.099486, 0.009787, 0.024957, 0.999939, 0.008413, -0.007121, -0.000346, 174.665155, -70.388138, 88.080734, , , 0.000000, , , 
01690, , 8.769665, 0.333302, 1.544346, 0.618477, 4.403124, -2.090530, 1.449903, -1.366149, -0.022412, -0.835693, -0.358643, 0.347656, 0.087589, 0.003208, 0.016066, 0.999950, 0.007249, -0.006831, -0.000112, 175.677612, -69.585549, 87.889644, , , 0.000000, , , 
01691, , 10.387121, 1.717158, 1.908645, 2.050593, 5.295193, -0.744234, 1.519712, -1.535489, 0.116579, -0.827148, -0.349854, 0.366943, 0.103710, 0.017082, 0.020013, 0.999941, 0.007598, -0.007677, 0.000583, 176.872307, -68.711202, 87.542571, , , 0.000000, , , 
01692, , 12.864411, 3.623667, 1.812443, 3.995527, 6.103705, 1.531279, 1.275255, -1.312166, 0.259484, -0.822998, -0.345703, 0.379883, 0.128473, 0.036283, 0.019199, 0.999957, 0.006376, -0.006561, 0.001297, 178.089641, -67.949158, 87.021155, , , 0.000000, , , 
01693, , 13.789196, 4.612222, 1.189703, 4.985888, 5.958712, 2.534863, 0.910616, -0.931449, 0.334083, -0.831787, -0.336670, 0.388672, 0.137757, 0.046296, 0.012749, 0.999977, 0.004553, -0.004657, 0.001670, 179.108287, -67.419503, 86.483597, , , 0.000000, , , 
01694, , 14.067520, 4.556711, 0.502645, 4.935917, 5.563842, 2.977557, 0.610500, -0.678234, 0.287477, -0.829590, -0.334473, 0.388428, 0.140591, 0.045753, 0.005643, 0.999989, 0.003052, -0.003391, 0.001437, 179.877426, -67.020008, 86.030290, , , 0.000000, , , 
01695, , 13.950097, 3.375746, 0.059818, 3.764711, 5.283948, 2.990072, 0.505703, -0.479604, 0.202780, -0.829834, -0.325684, 0.388428, 0.139465, 0.033897, 0.001018, 0.999993, 0.002529, -0.002398, 0.001014, -179.563561, -66.744067, 85.737072, , , 0.000000, , , 
01696, , 13.446992, 1.552791, 0.764990, 1.998229, 5.915112, 2.222107, 0.421105, -0.333139, 0.102518, -0.832031, -0.316895, 0.388428, 0.134449, 0.015580, 0.007907, 0.999996, 0.002106, -0.001666, 0.000513, -179.180745, -66.544896, 85.583639, , , 0.000000, , , 
01697, , 12.997446, -0.049034, 2.297715, 0.477803, 7.276101, 1.189380, 0.324498, -0.200059, 0.029339, -0.844971, -0.310303, 0.390625, 0.129951, -0.000509, 0.023106, 0.999998, 0.001622, -0.001000, 0.000147, -178.961589, -66.429170, 85.546952, , , 0.000000, , , 
01698, , 13.223145, -0.986389, 3.739454, -0.382392, 8.755598, 0.817519, 0.310337, -0.048662, -0.031350, -0.847412, -0.297119, 0.384033, 0.132221, -0.009943, 0.037411, 0.999999, 0.001552, -0.000243, -0.000157, -178.817387, -66.399354, 85.584066, , , 0.000000, , , 
01699, , 15.248559, -1.071843, 4.667643, -0.378649, 10.408847, 2.310296, 0.460389, 0.159482, -0.007867, -0.868896, -0.277100, 0.370850, 0.152522, -0.010832, 0.046530, 0.999997, 0.002302, 0.000797, -0.000039, -178.560270, -66.489962, 85.590891, , , 0.000000, , , 
01700, , 17.052066, -0.139948, 5.541877, 0.629322, 11.822387, 3.653530, 0.633657, 0.618279, 0.145840, -0.888672, -0.254883, 0.351074, 0.170692, -0.001450, 0.054887, 0.999990, 0.003168, 0.003091, 0.000729, -177.967654, -66.846730, 85.341233, , , 0.000000, , , 
01701, , 17.118247, 0.506551, 6.135156, 1.294501, 12.230475, 3.591265, 0.684342, 1.360659, 0.289886, -0.921387, -0.214844, 0.322754, 0.171587, 0.005107, 0.060203, 0.999970, 0.003422, 0.006803, 0.001449, -177.101425, -67.617637, 84.826608, , , 0.000000, , , 
01702, , 17.094046, 1.170367, 5.594470, 1.952576, 11.444200, 3.974210, 0.654723, 2.275270, 0.390510, -0.954346, -0.161621, 0.291992, 0.171539, 0.011859, 0.054034, 0.999928, 0.003274, 0.011376, 0.001953, -175.955227, -68.919896, 83.996599, , , 0.000000, , , 
01703, , 17.261382, 1.598420, 4.239022, 2.395497, 9.818557, 4.894701, 0.569863, 3.400215, 0.592079, -1.004639, -0.084229, 0.250244, 0.173254, 0.016381, 0.039495, 0.999847, 0.002849, 0.017000, 0.002960, -174.253700, -70.831372, 82.531978, , , 0.000000, , , 
01704, , 16.768264, 1.699717, 2.068190, 2.524619, 7.008926, 5.444960, 0.480458, 4.406223, 0.889609, -1.051270, 0.015137, 0.223633, 0.168007, 0.017700, 0.017025, 0.999745, 0.002402, 0.022029, 0.004448, -171.426384, -73.295942, 79.849992, , , 0.000000, , , 
01705, , 15.845419, 1.498508, -0.274563, 2.360053, 3.765412, 5.471005, -0.268111, 5.183593, 0.972268, -1.080566, 0.112061, 0.220703, 0.158236, 0.015747, -0.006870, 0.999651, -0.001340, 0.025915, 0.004861, -167.600226, -76.115989, 75.724997, , , 0.000000, , , 
01706, , 15.006879, 0.602395, -4.698587, 1.376812, -1.534790, 5.786460, -1.223338, 5.394886, 0.769368, -1.098877, 0.188965, 0.243896, 0.148704, 0.006294, -0.051048, 0.999610, -0.006116, 0.026971, 0.003846, -162.738992, -79.020571, 70.031076, , , 0.000000, , , 
01707, , 16.103281, 0.320712, -6.744541, 1.029932, -4.191989, 7.104974, -1.297739, 5.084679, 0.188537, -1.099121, 0.208496, 0.293457, 0.159246, 0.002902, -0.071529, 0.999655, -0.006488, 0.025420, 0.000943, -156.968634, -81.722249, 63.425536, , , 0.000000, , , 
01708, , 18.045926, -0.374397, -7.448420, 0.248248, -5.470021, 8.928128, -1.419680, 4.778401, -0.238408, -1.087891, 0.182129, 0.336914, 0.178607, -0.004507, -0.078736, 0.999689, -0.007098, 0.023890, -0.001192, -148.459109, -84.247769, 54.034635, , , 0.000000, , , 
01709, , 19.043411, -1.607336, -8.260768, -1.215610, -6.943918, 9.775874, -0.950207, 4.336349, -0.409854, -1.076172, 0.120361, 0.374023, 0.188551, -0.016866, -0.086631, 0.999752, -0.004751, 0.021680, -0.002049, -131.809059, -86.328372, 36.785005, , , 0.000000, , , 
01710, , 19.501362, -1.373934, -6.023247, -0.983321, -5.519577, 9.859136, -0.388144, 4.032555, -0.445483, -1.049316, 0.043213, 0.378906, 0.193715, -0.014294, -0.064120, 0.999792, -0.001941, 0.020161, -0.002227, -92.996238, -87.519613, -2.300777, , , 0.000000, , , 
01711, , 19.395797, -1.138583, -3.688395, -0.721854, -3.988704, 9.542208, -0.525164, 4.102605, -0.388200, -1.029053, -0.029297, 0.353516, 0.193125, -0.011865, -0.040821, 0.999784, -0.002626, 0.020512, -0.001941, -45.692425, -86.841147, -49.956500, , , 0.000000, , , 
01712, , 18.768269, -1.688846, -4.282570, -1.522045, -5.273717, 8.714488, -0.586142, 4.265410, -0.297727, -1.002441, -0.088867, 0.315186, 0.186688, -0.017300, -0.046764, 0.999767, -0.002930, 0.021325, -0.001489, -24.439054, -84.890834, -71.598493, , , 0.000000, , , 
01713, , 18.099249, -0.448801, -4.164235, -0.456833, -5.978152, 7.769285, -0.107296, 4.253623, -0.346133, -0.978271, -0.135010, 0.274414, 0.180044, -0.004824, -0.045476, 0.999772, -0.000536, 0.021266, -0.001731, -15.203518, -82.658545, -80.949092, , , 0.000000, , , 
01714, , 16.665678, -0.246549, -2.629126, -0.273035, -5.014363, 6.294925, -0.417674, 4.305687, -0.389692, -0.945557, -0.179199, 0.227295, 0.166034, -0.002849, -0.029865, 0.999764, -0.002088, 0.021527, -0.001948, -10.347320, -80.288966, -86.101567, , , 0.000000, , , 
