PacketCounter, SampleTimeFine, Acc_X, Acc_Y, Acc_Z, FreeAcc_X, FreeAcc_Y, FreeAcc_Z, Gyr_X, Gyr_Y, Gyr_Z, Mag_X, Mag_Y, Mag_Z, VelInc_X, VelInc_Y, VelInc_Z, OriInc_q0, OriInc_q1, OriInc_q2, OriInc_q3, Roll, Pitch, Yaw, Latitude, Longitude, Altitude, Vel_X, Vel_Y, Vel_Z
30495, , 9.585471, -0.091015, -1.666772, 0.000000, 0.000000, -0.082956, -0.028564, 0.000985, 0.000425, -1.039795, -0.013916, 0.357666, 0.095855, -0.000912, -0.016668, 1.000000, -0.000143, 0.000005, 0.000002, -176.867056, -80.121060, -12.089227, , , 0.000000, , , 
30496, , 9.518287, -0.085970, -1.496989, 0.287360, -0.041138, -0.181390, -0.049798, -0.001637, -0.007522, -1.039795, -0.013916, 0.357666, 0.095183, -0.000867, -0.014969, 1.000000, -0.000249, -0.000008, -0.000038, -177.362898, -79.324030, -11.359808, , , 0.000000, , , 
30497, , 9.587755, -0.063261, -1.505311, 0.288792, -0.063884, -0.111784, -0.053115, -0.001850, 0.001850, -1.037598, -0.018311, 0.362061, 0.095878, -0.000636, -0.015052, 1.000000, -0.000266, -0.000009, 0.000009, -177.387972, -79.322922, -11.365261, , , 0.000000, , , 
30498, , 9.613373, 0.005115, -1.693401, 0.100632, -0.103473, -0.052372, -0.059854, -0.001195, -0.001161, -1.041992, -0.016113, 0.353516, 0.096134, 0.000046, -0.016933, 1.000000, -0.000299, -0.000006, -0.000006, -177.429272, -79.322036, -11.358326, , , 0.000000, , , 
30499, , 9.625266, 0.021185, -1.991427, -0.188381, -0.074686, 0.014363, -0.035943, -0.012520, 0.004650, -1.041748, -0.024902, 0.353516, 0.096254, 0.000211, -0.019908, 1.000000, -0.000180, -0.000063, 0.000023, -177.437458, -79.314750, -11.370953, , , 0.000000, , , 
30500, , 9.704585, -0.031500, -2.184921, -0.352278, 0.002660, 0.128627, 0.042019, -0.020167, 0.005332, -1.043945, -0.022705, 0.353516, 0.097048, -0.000308, -0.021839, 1.000000, 0.000210, -0.000101, 0.000027, -177.401382, -79.303092, -11.383215, , , 0.000000, , , 
30501, , 9.787149, -0.041557, -2.012943, -0.167649, -0.018101, 0.177984, 0.088113, -0.006870, 0.004325, -1.033203, -0.027100, 0.351318, 0.097872, -0.000405, -0.020126, 1.000000, 0.000441, -0.000034, 0.000022, -177.338752, -79.299046, -11.395575, , , 0.000000, , , 
30502, , 9.721469, -0.073404, -1.848321, -0.015309, -0.010318, 0.083186, 0.072267, 0.014690, 0.000744, -1.035400, -0.033691, 0.357910, 0.097213, -0.000727, -0.018491, 1.000000, 0.000361, 0.000073, 0.000004, -177.295894, -79.306227, -11.397154, , , 0.000000, , , 
30503, , 9.622802, -0.155112, -1.807370, 0.017924, 0.067120, -0.020642, 0.013606, 0.002224, 0.004243, -1.031006, -0.033691, 0.357910, 0.096228, -0.001548, -0.018075, 1.000000, 0.000068, 0.000011, 0.000021, -177.274918, -79.307385, -11.410567, , , 0.000000, , , 
30504, , 9.571252, -0.144801, -1.779322, 0.034867, 0.054221, -0.076586, -0.000170, -0.012473, 0.001689, -1.033203, -0.035889, 0.351562, 0.095714, -0.001447, -0.017787, 1.000000, -0.000001, -0.000062, 0.000008, -177.273481, -79.298993, -11.412191, , , 0.000000, , , 
30505, , 9.616939, -0.060157, -1.750162, 0.059641, -0.035326, -0.037852, -0.039046, -0.006873, 0.000418, -1.035156, -0.038086, 0.353760, 0.096170, -0.000605, -0.017498, 1.000000, -0.000195, -0.000034, 0.000002, -177.295575, -79.295048, -11.412474, , , 0.000000, , , 
30506, , 9.636388, -0.020026, -1.772022, 0.036669, -0.071789, -0.015038, -0.035604, -0.004664, -0.002895, -1.030762, -0.042480, 0.353760, 0.096364, -0.000205, -0.017718, 1.000000, -0.000178, -0.000023, -0.000014, -177.326274, -79.291662, -11.402023, , , 0.000000, , , 
30507, , 9.617118, 0.023727, -1.822792, -0.022621, -0.105780, -0.024920, -0.027661, 0.003577, -0.006730, -1.032959, -0.042480, 0.349365, 0.096171, 0.000232, -0.018230, 1.000000, -0.000138, 0.000018, -0.000034, -177.361991, -79.293887, -11.381802, , , 0.000000, , , 
30508, , 9.607413, 0.004699, -1.811787, -0.010943, -0.087391, -0.036327, -0.008222, 0.004090, -0.000149, -1.032959, -0.040283, 0.349365, 0.096074, 0.000046, -0.018120, 1.000000, -0.000041, 0.000020, -0.000001, -177.372224, -79.295709, -11.376380, , , 0.000000, , , 
30509, , 9.668565, -0.027644, -1.814601, 0.001974, -0.057480, 0.024558, 0.006130, 0.003827, 0.006579, -1.034912, -0.049072, 0.355957, 0.096685, -0.000273, -0.018148, 1.000000, 0.000031, 0.000019, 0.000033, -177.348257, -79.297726, -11.397197, , , 0.000000, , , 
30510, , 9.661720, -0.075384, -1.850986, -0.027692, -0.005329, 0.024988, 0.006569, 0.003198, 0.012809, -1.030762, -0.046875, 0.351562, 0.096617, -0.000747, -0.018511, 1.000000, 0.000033, 0.000016, 0.000064, -177.315372, -79.298825, -11.427188, , , 0.000000, , , 
30511, , 9.595250, -0.084576, -1.926105, -0.111683, 0.015803, -0.026312, -0.007065, -0.001336, 0.020351, -1.035156, -0.042480, 0.349365, 0.095953, -0.000837, -0.019260, 1.000000, -0.000035, -0.000007, 0.000102, -177.257981, -79.297508, -11.489714, , , 0.000000, , , 
30512, , 9.673197, -0.145443, -2.076895, -0.234012, 0.094199, 0.078812, -0.001683, -0.010582, 0.012411, -1.037109, -0.046875, 0.349365, 0.096733, -0.001449, -0.020764, 1.000000, -0.000008, -0.000053, 0.000062, -177.233375, -79.289809, -11.516104, , , 0.000000, , , 
30513, , 9.674556, -0.181099, -2.082394, -0.234088, 0.128621, 0.081495, 0.024383, 0.014074, 0.016347, -1.032959, -0.051270, 0.351562, 0.096744, -0.001801, -0.020831, 1.000000, 0.000122, 0.000070, 0.000082, -177.167843, -79.297406, -11.568580, , , 0.000000, , , 
30514, , 9.622776, -0.119443, -1.843981, -0.021528, 0.032643, -0.014176, 0.046813, 0.001088, 0.005282, -1.032959, -0.042480, 0.353760, 0.096228, -0.001188, -0.018441, 1.000000, 0.000234, 0.000005, 0.000026, -177.130096, -79.292944, -11.579881, , , 0.000000, , , 
30515, , 9.737880, -0.055775, -1.786675, 0.045899, -0.044414, 0.087694, 0.051413, -0.016151, 0.002595, -1.039307, -0.044678, 0.357910, 0.097380, -0.000552, -0.017859, 1.000000, 0.000257, -0.000081, 0.000013, -177.095253, -79.283627, -11.585363, , , 0.000000, , , 
30516, , 9.808275, 0.024555, -1.628508, 0.201850, -0.151002, 0.126697, 0.048582, -0.004977, 0.002611, -1.039551, -0.040283, 0.351562, 0.098083, 0.000251, -0.016283, 1.000000, 0.000243, -0.000025, 0.000013, -177.065597, -79.276158, -11.587404, , , 0.000000, , , 
30517, , 9.794141, 0.024054, -1.528806, 0.296026, -0.165585, 0.094279, 0.007922, 0.005934, 0.007943, -1.035156, -0.040283, 0.353760, 0.097941, 0.000245, -0.015291, 1.000000, 0.000040, 0.000030, 0.000040, -177.036130, -79.279320, -11.612774, , , 0.000000, , , 
30518, , 9.680545, 0.006352, -1.664583, 0.146169, -0.124098, 0.008059, -0.016774, -0.008588, 0.007119, -1.041504, -0.040283, 0.351562, 0.096806, 0.000066, -0.016642, 1.000000, -0.000084, -0.000043, 0.000036, -177.040059, -79.274443, -11.619067, , , 0.000000, , , 
30519, , 9.618280, -0.021846, -1.829424, -0.020456, -0.070155, -0.022221, -0.022902, -0.005016, 0.008514, -1.039307, -0.042480, 0.351562, 0.096183, -0.000216, -0.018292, 1.000000, -0.000115, -0.000025, 0.000043, -177.028250, -79.271320, -11.644442, , , 0.000000, , , 
30520, , 9.606000, -0.067698, -1.980722, -0.162661, -0.001757, -0.005719, -0.019303, -0.000040, 0.007313, -1.039307, -0.042480, 0.351562, 0.096060, -0.000675, -0.019807, 1.000000, -0.000097, -0.000000, 0.000037, -177.038831, -79.272740, -11.645688, , , 0.000000, , , 
30521, , 9.486920, -0.124986, -2.194834, -0.383640, 0.090304, -0.082362, -0.004658, -0.002168, 0.010309, -1.043701, -0.042236, 0.347168, 0.094870, -0.001245, -0.021947, 1.000000, -0.000023, -0.000011, 0.000052, -177.010708, -79.271193, -11.677028, , , 0.000000, , , 
30522, , 9.543084, -0.179136, -2.074521, -0.246177, 0.123190, -0.048959, 0.018757, -0.030751, 0.009667, -1.043945, -0.033447, 0.347168, 0.095434, -0.001785, -0.020731, 1.000000, 0.000094, -0.000154, 0.000048, -176.997307, -79.249886, -11.680486, , , 0.000000, , , 
30523, , 9.527096, -0.145972, -1.971790, -0.151927, 0.074179, -0.084057, 0.010690, -0.023885, 0.011634, -1.048096, -0.035645, 0.344971, 0.095273, -0.001453, -0.019707, 1.000000, 0.000053, -0.000119, 0.000058, -176.959945, -79.235869, -11.712282, , , 0.000000, , , 
30524, , 9.548867, -0.134632, -2.043280, -0.215084, 0.071542, -0.049358, 0.015905, -0.035911, 0.001587, -1.050293, -0.035645, 0.338379, 0.095492, -0.001344, -0.020416, 1.000000, 0.000080, -0.000180, 0.000008, -176.966161, -79.208065, -11.697189, , , 0.000000, , , 
30525, , 9.577490, 0.017827, -1.905846, -0.095974, -0.101430, -0.048397, 0.034289, -0.037698, -0.002477, -1.048096, -0.035645, 0.338379, 0.095778, 0.000180, -0.019040, 1.000000, 0.000171, -0.000188, -0.000012, -176.959921, -79.186575, -11.683540, , , 0.000000, , , 
30526, , 9.586682, 0.131261, -1.746924, 0.047933, -0.237694, -0.070272, -0.003678, -0.031785, 0.000876, -1.047852, -0.042236, 0.342773, 0.095870, 0.001313, -0.017454, 1.000000, -0.000018, -0.000159, 0.000004, -176.982873, -79.158911, -11.662904, , , 0.000000, , , 
30527, , 9.677644, 0.083247, -1.754985, 0.067360, -0.192803, 0.021030, -0.061862, -0.035128, 0.006844, -1.052246, -0.042236, 0.340576, 0.096779, 0.000830, -0.017533, 1.000000, -0.000309, -0.000176, 0.000034, -177.003372, -79.138618, -11.678121, , , 0.000000, , , 
30528, , 9.760481, 0.063105, -1.829561, 0.017350, -0.164717, 0.116604, -0.068129, -0.019528, 0.022091, -1.050049, -0.046631, 0.334229, 0.097607, 0.000636, -0.018286, 1.000000, -0.000341, -0.000098, 0.000110, -177.018620, -79.119592, -11.703518, , , 0.000000, , , 
30529, , 9.700514, 0.059945, -1.833239, 0.004312, -0.160226, 0.058413, -0.080992, -0.008669, 0.032402, -1.045654, -0.051025, 0.336426, 0.097006, 0.000608, -0.018328, 1.000000, -0.000405, -0.000043, 0.000162, -176.969966, -79.113671, -11.800319, , , 0.000000, , , 
30530, , 9.691909, 0.045505, -1.865548, -0.024152, -0.141336, 0.056197, -0.039446, -0.018549, 0.027694, -1.049805, -0.055420, 0.338623, 0.096921, 0.000465, -0.018647, 1.000000, -0.000197, -0.000093, 0.000138, -176.965179, -79.096820, -11.829721, , , 0.000000, , , 
30531, , 9.709782, 0.076237, -1.846755, -0.005977, -0.176983, 0.069864, -0.035541, -0.014657, 0.018818, -1.045410, -0.062012, 0.332275, 0.097099, 0.000768, -0.018461, 1.000000, -0.000178, -0.000073, 0.000094, -176.932045, -79.087879, -11.884207, , , 0.000000, , , 
30532, , 9.636959, 0.028696, -2.002246, -0.159817, -0.102950, 0.028281, -0.014030, -0.027934, 0.003099, -1.043457, -0.064209, 0.330078, 0.096372, 0.000287, -0.020009, 1.000000, -0.000070, -0.000140, 0.000015, -176.999844, -79.066878, -11.825527, , , 0.000000, , , 
30533, , 9.747617, 0.061485, -2.067166, -0.204635, -0.129683, 0.148954, -0.011916, -0.025368, -0.011074, -1.039062, -0.068604, 0.338623, 0.097479, 0.000608, -0.020659, 1.000000, -0.000060, -0.000127, -0.000055, -177.043444, -79.052713, -11.788080, , , 0.000000, , , 
30534, , 9.620431, -0.069694, -2.038274, -0.176383, 0.003640, 0.019962, -0.003467, -0.008053, -0.012510, -1.041016, -0.072998, 0.332275, 0.096205, -0.000703, -0.020379, 1.000000, -0.000017, -0.000040, -0.000063, -177.157417, -79.040888, -11.676690, , , 0.000000, , , 
30535, , 9.591397, -0.034106, -1.833858, 0.011979, -0.060001, -0.047681, -0.022328, -0.007183, -0.006768, -1.036865, -0.072998, 0.334473, 0.095915, -0.000346, -0.018335, 1.000000, -0.000112, -0.000036, -0.000034, -177.191350, -79.036988, -11.655164, , , 0.000000, , , 
30536, , 9.585444, -0.114077, -1.876849, -0.016006, 0.028279, -0.044614, -0.022016, -0.002423, 0.001401, -1.039062, -0.068604, 0.330078, 0.095855, -0.001142, -0.018767, 1.000000, -0.000110, -0.000012, 0.000007, -177.272507, -79.027103, -11.587999, , , 0.000000, , , 
30537, , 9.627474, -0.051712, -1.721567, 0.132612, -0.058834, -0.033440, -0.016009, 0.005239, 0.017763, -1.039062, -0.072998, 0.325684, 0.096274, -0.000510, -0.017218, 1.000000, -0.000080, 0.000026, 0.000089, -177.228599, -79.029633, -11.642074, , , 0.000000, , , 
30538, , 9.640070, -0.060757, -1.778635, 0.081283, -0.041524, -0.010144, -0.016276, 0.015255, 0.025563, -1.036865, -0.070801, 0.334473, 0.096399, -0.000597, -0.017794, 1.000000, -0.000081, 0.000076, 0.000128, -177.226965, -79.031040, -11.655690, , , 0.000000, , , 
30539, , 9.586322, 0.004763, -1.981968, -0.138040, -0.075478, -0.024887, -0.008639, 0.016411, 0.025326, -1.041016, -0.070801, 0.338623, 0.095862, 0.000059, -0.019828, 1.000000, -0.000043, 0.000082, 0.000127, -177.154829, -79.039740, -11.734216, , , 0.000000, , , 
30540, , 9.576451, -0.027768, -2.215976, -0.361098, -0.007449, 0.010208, -0.015767, -0.006326, 0.017830, -1.039062, -0.066406, 0.332275, 0.095765, -0.000271, -0.022157, 1.000000, -0.000079, -0.000032, 0.000089, -177.179470, -79.029269, -11.720805, , , 0.000000, , , 
30541, , 9.687035, -0.079033, -2.207875, -0.323456, 0.036350, 0.117753, -0.010288, -0.021742, 0.011866, -1.045410, -0.064209, 0.330078, 0.096873, -0.000786, -0.022068, 1.000000, -0.000051, -0.000109, 0.000059, -177.153633, -79.016510, -11.753135, , , 0.000000, , , 
30542, , 9.704344, -0.170910, -2.081756, -0.179221, 0.108100, 0.111697, -0.017312, -0.018442, 0.008675, -1.039062, -0.059814, 0.332275, 0.097045, -0.001707, -0.020808, 1.000000, -0.000087, -0.000092, 0.000043, -177.207326, -78.993731, -11.711009, , , 0.000000, , , 
30543, , 9.689535, -0.084974, -1.768040, 0.109871, -0.024075, 0.036557, -0.019032, -0.001892, 0.003635, -1.043457, -0.059814, 0.336426, 0.096896, -0.000850, -0.017679, 1.000000, -0.000095, -0.000009, 0.000018, -177.207911, -78.992566, -11.721528, , , 0.000000, , , 
30544, , 9.685523, -0.106496, -1.642285, 0.235989, -0.020272, 0.008804, -0.043211, 0.018715, 0.009625, -1.043457, -0.055420, 0.332031, 0.096854, -0.001064, -0.016432, 1.000000, -0.000216, 0.000094, 0.000048, -177.259102, -78.991325, -11.696742, , , 0.000000, , , 
30545, , 9.580623, -0.058077, -1.535187, 0.310527, -0.079943, -0.114971, -0.044979, 0.026328, 0.004471, -1.047852, -0.048828, 0.334229, 0.095804, -0.000582, -0.015364, 1.000000, -0.000225, 0.000132, 0.000022, -177.268113, -79.006289, -11.713823, , , 0.000000, , , 
30546, , 9.515773, -0.016789, -1.685800, 0.145273, -0.093480, -0.150271, -0.071281, 0.013697, 0.014473, -1.045654, -0.053223, 0.334229, 0.095157, -0.000167, -0.016864, 1.000000, -0.000356, 0.000068, 0.000072, -177.316092, -79.007978, -11.708474, , , 0.000000, , , 
30547, , 9.542450, 0.058344, -1.915021, -0.084063, -0.133827, -0.081085, -0.035881, -0.010492, 0.010816, -1.047852, -0.044434, 0.334229, 0.095425, 0.000585, -0.019145, 1.000000, -0.000179, -0.000052, 0.000054, -177.306349, -79.001701, -11.739349, , , 0.000000, , , 
30548, , 9.636625, 0.106516, -2.077223, -0.228255, -0.159123, 0.041922, -0.025641, -0.032220, 0.008280, -1.048096, -0.042236, 0.338623, 0.096370, 0.001066, -0.020757, 1.000000, -0.000128, -0.000161, 0.000041, -177.357359, -78.978720, -11.704444, , , 0.000000, , , 
30549, , 9.654431, -0.029884, -2.204220, -0.322642, -0.006757, 0.084958, 0.000960, -0.047828, 0.008050, -1.048096, -0.031250, 0.334229, 0.096550, -0.000295, -0.022019, 1.000000, 0.000005, -0.000239, 0.000040, -177.339791, -78.951150, -11.721790, , , 0.000000, , , 
30550, , 9.755012, -0.049415, -1.979720, -0.076705, -0.026074, 0.140977, 0.030023, -0.048724, 0.009813, -1.048096, -0.029053, 0.333984, 0.097555, -0.000486, -0.019774, 1.000000, 0.000150, -0.000244, 0.000049, -177.362756, -78.914878, -11.683233, , , 0.000000, , , 
30551, , 9.751277, -0.148241, -1.828440, 0.088163, 0.045922, 0.109141, 0.032973, -0.025719, 0.018179, -1.056885, -0.022461, 0.333984, 0.097515, -0.001471, -0.018272, 1.000000, 0.000165, -0.000129, 0.000091, -177.294400, -78.899690, -11.733644, , , 0.000000, , , 
30552, , 9.682073, -0.119836, -1.612627, 0.283007, -0.013113, -0.000593, 0.036033, -0.013924, 0.008739, -1.052490, -0.022461, 0.333984, 0.096822, -0.001191, -0.016120, 1.000000, 0.000180, -0.000070, 0.000044, -177.305302, -78.884223, -11.703623, , , 0.000000, , , 
30553, , 9.670885, -0.106326, -1.597288, 0.294597, -0.029336, -0.014677, 0.004594, -0.009084, 0.001332, -1.054688, -0.020264, 0.333984, 0.096710, -0.001062, -0.015969, 1.000000, 0.000023, -0.000045, 0.000007, -177.300121, -78.879006, -11.706226, , , 0.000000, , , 
30554, , 9.703952, -0.107803, -1.682803, 0.219306, -0.014424, 0.034233, 0.005852, 0.000612, -0.009475, -1.052734, -0.013672, 0.338379, 0.097039, -0.001082, -0.016828, 1.000000, 0.000029, 0.000003, -0.000047, -177.371045, -78.877499, -11.632345, , , 0.000000, , , 
30555, , 9.753172, 0.032554, -1.771327, 0.120508, -0.140635, 0.098353, -0.001013, 0.005903, -0.006607, -1.054932, -0.009277, 0.331787, 0.097531, 0.000322, -0.017716, 1.000000, -0.000005, 0.000030, -0.000033, -177.390151, -78.881069, -11.613469, , , 0.000000, , , 
30556, , 9.755899, 0.047716, -1.854297, 0.038169, -0.140711, 0.116915, -0.029513, 0.000763, -0.004056, -1.057129, -0.009277, 0.342529, 0.097559, 0.000472, -0.018543, 1.000000, -0.000148, 0.000004, -0.000020, -177.463286, -78.882414, -11.557922, , , 0.000000, , , 
30557, , 9.732949, -0.016092, -1.995319, -0.092334, -0.054799, 0.122116, -0.010988, -0.008760, 0.001652, -1.061523, -0.000488, 0.342529, 0.097330, -0.000161, -0.019949, 1.000000, -0.000055, -0.000044, 0.000008, -177.465944, -78.877376, -11.561632, , , 0.000000, , , 
30558, , 9.689812, -0.033815, -1.900643, -0.004614, -0.048479, 0.061708, -0.022997, -0.012397, 0.000633, -1.063721, 0.006104, 0.340332, 0.096899, -0.000340, -0.019000, 1.000000, -0.000115, -0.000062, 0.000003, -177.527498, -78.870744, -11.514296, , , 0.000000, , , 
30559, , 9.611492, -0.108899, -1.888403, 0.005201, 0.026686, -0.016873, -0.028063, -0.005789, 0.008798, -1.061523, 0.001709, 0.338135, 0.096116, -0.001087, -0.018881, 1.000000, -0.000140, -0.000029, 0.000044, -177.518727, -78.867227, -11.539623, , , 0.000000, , , 
30560, , 9.583123, -0.202277, -1.863273, 0.039883, 0.117169, -0.048793, -0.028687, -0.009469, 0.008306, -1.061523, 0.006104, 0.333740, 0.095832, -0.002021, -0.018628, 1.000000, -0.000143, -0.000047, 0.000042, -177.556794, -78.862269, -11.519214, , , 0.000000, , , 
30561, , 9.554894, -0.255038, -1.873787, 0.033197, 0.170980, -0.074013, 0.006721, -0.003024, 0.014794, -1.061768, 0.010498, 0.346680, 0.095549, -0.002543, -0.018737, 1.000000, 0.000034, -0.000015, 0.000074, -177.510312, -78.860189, -11.562664, , , 0.000000, , , 
30562, , 9.551176, -0.195583, -1.820402, 0.074674, 0.103889, -0.088454, 0.006158, 0.003017, 0.010496, -1.061768, 0.014893, 0.338135, 0.095512, -0.001950, -0.018206, 1.000000, 0.000031, 0.000015, 0.000052, -177.506092, -78.862308, -11.564511, , , 0.000000, , , 
30563, , 9.552675, -0.147997, -1.897573, -0.007760, 0.067908, -0.072481, 0.006904, 0.002084, 0.005121, -1.068115, 0.017334, 0.340332, 0.095527, -0.001477, -0.018977, 1.000000, 0.000035, 0.000010, 0.000026, -177.486980, -78.863388, -11.579958, , , 0.000000, , , 
30564, , 9.633577, -0.058919, -1.993580, -0.100069, -0.008069, 0.024668, 0.004981, 0.006161, 0.001769, -1.063965, 0.017090, 0.340332, 0.096335, -0.000588, -0.019939, 1.000000, 0.000025, 0.000031, 0.000009, -177.499443, -78.867680, -11.565145, , , 0.000000, , , 
30565, , 9.564225, -0.039197, -2.020748, -0.142891, -0.020761, -0.038307, 0.014232, -0.001510, -0.003312, -1.065918, 0.017090, 0.340332, 0.095642, -0.000392, -0.020207, 1.000000, 0.000071, -0.000008, -0.000017, -177.501110, -78.866914, -11.555135, , , 0.000000, , , 
30566, , 9.598195, -0.033802, -2.149602, -0.259822, -0.007346, 0.019897, 0.010846, -0.042107, -0.000301, -1.065918, 0.012939, 0.335938, 0.095986, -0.000337, -0.021476, 1.000000, 0.000054, -0.000211, -0.000002, -177.522930, -78.842067, -11.527392, , , 0.000000, , , 
30567, , 9.576256, -0.080633, -2.091387, -0.195532, 0.029815, -0.012384, 0.034592, -0.054702, -0.004566, -1.062012, 0.025879, 0.342285, 0.095768, -0.000805, -0.020888, 1.000000, 0.000173, -0.000274, -0.000023, -177.523199, -78.810883, -11.506916, , , 0.000000, , , 
30568, , 9.526316, -0.138238, -2.079005, -0.178386, 0.086165, -0.063184, 0.011846, -0.047235, 0.002398, -1.068115, 0.017334, 0.340332, 0.095268, -0.001380, -0.020768, 1.000000, 0.000059, -0.000236, 0.000012, -177.537214, -78.780344, -11.486545, , , 0.000000, , , 
30569, , 9.472667, -0.176664, -1.977584, -0.079398, 0.109038, -0.135122, 0.015963, -0.058018, 0.009304, -1.063965, 0.021484, 0.338135, 0.094732, -0.001761, -0.019749, 1.000000, 0.000080, -0.000290, 0.000047, -177.508491, -78.746917, -11.506505, , , 0.000000, , , 
30570, , 9.486004, -0.294462, -2.016633, -0.090287, 0.228908, -0.113345, -0.007966, -0.049748, 0.019344, -1.066162, 0.019287, 0.344482, 0.094865, -0.002936, -0.020143, 1.000000, -0.000040, -0.000249, 0.000097, -177.479232, -78.713117, -11.541592, , , 0.000000, , , 
30571, , 9.577670, -0.296560, -2.104017, -0.153061, 0.238111, -0.006237, 0.039737, -0.039971, 0.015191, -1.065918, 0.017090, 0.342285, 0.095781, -0.002954, -0.021022, 1.000000, 0.000199, -0.000200, 0.000076, -177.418046, -78.689865, -11.580770, , , 0.000000, , , 
30572, , 9.594134, -0.191036, -2.117114, -0.174895, 0.132721, 0.011664, 0.038261, -0.034204, 0.006281, -1.068115, 0.017334, 0.340332, 0.095945, -0.001903, -0.021155, 1.000000, 0.000191, -0.000171, 0.000031, -177.384771, -78.663844, -11.592428, , , 0.000000, , , 
30573, , 9.723817, -0.202997, -2.132831, -0.160127, 0.140338, 0.142083, 0.036442, -0.034748, -0.002931, -1.065918, 0.017090, 0.344482, 0.097242, -0.002028, -0.021312, 1.000000, 0.000182, -0.000174, -0.000015, -177.376787, -78.644047, -11.579275, , , 0.000000, , , 
30574, , 9.725776, -0.144123, -1.969121, -0.005225, 0.055985, 0.111312, 0.049216, -0.046395, -0.009332, -1.068115, 0.019531, 0.344482, 0.097262, -0.001441, -0.019669, 1.000000, 0.000246, -0.000232, -0.000047, -177.377560, -78.609939, -11.549572, , , 0.000000, , , 
30575, , 9.763450, -0.068701, -1.687461, 0.267219, -0.063216, 0.091948, 0.066022, -0.038595, -0.012620, -1.068115, 0.017334, 0.342285, 0.097638, -0.000688, -0.016856, 1.000000, 0.000330, -0.000193, -0.000063, -177.380567, -78.588193, -11.507915, , , 0.000000, , , 
30576, , 9.770411, -0.022085, -1.653741, 0.297952, -0.115415, 0.091563, 0.050853, -0.023789, -0.007932, -1.068115, 0.017334, 0.346680, 0.097706, -0.000221, -0.016526, 1.000000, 0.000254, -0.000119, -0.000040, -177.372451, -78.569066, -11.486283, , , 0.000000, , , 
30577, , 9.706796, 0.037086, -1.605139, 0.326137, -0.179186, 0.018958, 0.034931, -0.030544, -0.003935, -1.065918, 0.014893, 0.346680, 0.097070, 0.000372, -0.016037, 1.000000, 0.000175, -0.000153, -0.000020, -177.367534, -78.551701, -11.470881, , , 0.000000, , , 
30578, , 9.763056, 0.061474, -1.845133, 0.103681, -0.170012, 0.121391, 0.014793, -0.021124, -0.004946, -1.070312, 0.017334, 0.348877, 0.097633, 0.000614, -0.018441, 1.000000, 0.000074, -0.000106, -0.000025, -177.375873, -78.537956, -11.453726, , , 0.000000, , , 
30579, , 9.681659, 0.008794, -2.071665, -0.122501, -0.081332, 0.087049, 0.052223, 0.000678, -0.002830, -1.070312, 0.012939, 0.344482, 0.096817, 0.000092, -0.020717, 1.000000, 0.000261, 0.000003, -0.000014, -177.353853, -78.538432, -11.445664, , , 0.000000, , , 
30580, , 9.581637, 0.003195, -2.061235, -0.130454, -0.073721, -0.012993, 0.027309, -0.007640, -0.005482, -1.070312, 0.012939, 0.348877, 0.095817, 0.000032, -0.020609, 1.000000, 0.000137, -0.000038, -0.000027, -177.360937, -78.532738, -11.422720, , , 0.000000, , , 
30581, , 9.519761, -0.091837, -2.237307, -0.297313, 0.048983, -0.037769, -0.005968, -0.015387, -0.006437, -1.070068, 0.008545, 0.351074, 0.095199, -0.000922, -0.022366, 1.000000, -0.000030, -0.000077, -0.000032, -177.384502, -78.524114, -11.402164, , , 0.000000, , , 
30582, , 9.516408, -0.274796, -2.298612, -0.326768, 0.238722, -0.027117, 0.068002, -0.025570, -0.005054, -1.070312, 0.015137, 0.351074, 0.095167, -0.002743, -0.022975, 1.000000, 0.000340, -0.000128, -0.000025, -177.371383, -78.506308, -11.376125, , , 0.000000, , , 
30583, , 9.655533, -0.066373, -1.847382, 0.107649, -0.040748, 0.017536, 0.069062, -0.020982, -0.006189, -1.068115, 0.012695, 0.351074, 0.096557, -0.000660, -0.018464, 1.000000, 0.000345, -0.000105, -0.000031, -177.351945, -78.494475, -11.355581, , , 0.000000, , , 
30584, , 9.888844, -0.012384, -1.704379, 0.285050, -0.124550, 0.217145, -0.016561, 0.005453, -0.002364, -1.068115, 0.010498, 0.357666, 0.098888, -0.000126, -0.017046, 1.000000, -0.000083, 0.000027, -0.000012, -177.371419, -78.493489, -11.345550, , , 0.000000, , , 
30585, , 10.125852, 0.104287, -1.719438, 0.296817, -0.245873, 0.451409, -0.055472, 0.039828, 0.000542, -1.065918, 0.010498, 0.361816, 0.101255, 0.001038, -0.017215, 1.000000, -0.000277, 0.000199, 0.000003, -177.396556, -78.516283, -11.352332, , , 0.000000, , , 
30586, , 10.221729, 0.035530, -1.807510, 0.234212, -0.167523, 0.563688, -0.020516, 0.091161, 0.016744, -1.063721, 0.014893, 0.366211, 0.102209, 0.000362, -0.018122, 1.000000, -0.000103, 0.000456, 0.000084, -177.358528, -78.567022, -11.403500, , , 0.000000, , , 
30587, , 10.151641, 0.246629, -1.305412, 0.663694, -0.448340, 0.394135, -0.031102, 0.118620, 0.032768, -1.057373, 0.010498, 0.368408, 0.101508, 0.002481, -0.013115, 1.000000, -0.000156, 0.000593, 0.000164, -177.267536, -78.634043, -11.514502, , , 0.000000, , , 
30588, , 10.035432, 0.338219, -0.837207, 1.067746, -0.604603, 0.188291, -0.159401, 0.119393, 0.050421, -1.053223, 0.012695, 0.364014, 0.100348, 0.003401, -0.008435, 0.999999, -0.000797, 0.000597, 0.000252, -177.216078, -78.704309, -11.660834, , , 0.000000, , , 
30589, , 9.906340, 0.344606, -0.810690, 1.052921, -0.612226, 0.057878, -0.234707, 0.152524, 0.076237, -1.048828, 0.005859, 0.370605, 0.099056, 0.003474, -0.008187, 0.999999, -0.001174, 0.000763, 0.000381, -177.109555, -78.789441, -11.906559, , , 0.000000, , , 
30590, , 9.949018, 0.465442, -0.912432, 0.922537, -0.719458, 0.120258, -0.244094, 0.194328, 0.090041, -1.046631, 0.010254, 0.376953, 0.099479, 0.004688, -0.009227, 0.999999, -0.001220, 0.000972, 0.000450, -176.991168, -78.910566, -12.171038, , , 0.000000, , , 
30591, , 10.117716, 0.754640, -0.747467, 1.045200, -1.040697, 0.253137, -0.333202, 0.202445, 0.094288, -1.035889, -0.000732, 0.383545, 0.101166, 0.007582, -0.007590, 0.999998, -0.001666, 0.001012, 0.000471, -176.873578, -79.023514, -12.485349, , , 0.000000, , , 
30592, , 10.359399, 0.744282, -0.957898, 0.858737, -1.007211, 0.533167, -0.434191, 0.232255, 0.108501, -1.029297, -0.000977, 0.379395, 0.103579, 0.007478, -0.009715, 0.999997, -0.002171, 0.001161, 0.000543, -176.818523, -79.173531, -12.796963, , , 0.000000, , , 
30593, , 10.056394, 0.528309, -1.566333, 0.219762, -0.683551, 0.353332, -0.420477, 0.294226, 0.117524, -1.020752, -0.009766, 0.396729, 0.100538, 0.005309, -0.015822, 0.999997, -0.002102, 0.001471, 0.000588, -176.654592, -79.338016, -13.209034, , , 0.000000, , , 
30594, , 9.584647, 0.733194, -1.889147, -0.248472, -0.806743, -0.052603, -0.396516, 0.286028, 0.113021, -1.011963, -0.018555, 0.392578, 0.095815, 0.007348, -0.019043, 0.999997, -0.001983, 0.001430, 0.000565, -176.564406, -79.522331, -13.534797, , , 0.000000, , , 
30595, , 9.340784, 0.229339, -1.853579, -0.196423, -0.304158, -0.293893, -0.457022, 0.253773, 0.111135, -1.001221, -0.023193, 0.392578, 0.093383, 0.002303, -0.018660, 0.999996, -0.002285, 0.001269, 0.000556, -176.431883, -79.663586, -13.935772, , , 0.000000, , , 
30596, , 9.006863, -0.532736, -1.954058, -0.238359, 0.483352, -0.596655, -0.433705, 0.223243, 0.109400, -0.999023, -0.034180, 0.396973, 0.090050, -0.005321, -0.019630, 0.999997, -0.002169, 0.001116, 0.000547, -176.390042, -79.809504, -14.234113, , , 0.000000, , , 
30597, , 8.934878, -0.822381, -1.569811, 0.160627, 0.701820, -0.732253, -0.342504, 0.138436, 0.101532, -1.000977, -0.036377, 0.403320, 0.089342, -0.008205, -0.015746, 0.999998, -0.001713, 0.000692, 0.000508, -176.233661, -79.884933, -14.592346, , , 0.000000, , , 
30598, , 8.916199, -0.770637, -1.408439, 0.293673, 0.621589, -0.779218, -0.209639, 0.065099, 0.093763, -0.994385, -0.045166, 0.407715, 0.089161, -0.007679, -0.014105, 0.999999, -0.001048, 0.000325, 0.000469, -176.107310, -79.937808, -14.844881, , , 0.000000, , , 
30599, , 8.970602, -0.552987, -1.200975, 0.460773, 0.361186, -0.764092, -0.145823, -0.036146, 0.089541, -0.985596, -0.058594, 0.407959, 0.089711, -0.005498, -0.011990, 1.000000, -0.000729, -0.000181, 0.000448, -175.910968, -79.913597, -15.129159, , , 0.000000, , , 
30600, , 9.401068, -0.534458, -1.439728, 0.302187, 0.363464, -0.298744, -0.125849, -0.095031, 0.066347, -0.975098, -0.056396, 0.420898, 0.094019, -0.005322, -0.014349, 1.000000, -0.000629, -0.000475, 0.000332, -175.832302, -79.875975, -15.283609, , , 0.000000, , , 
30601, , 9.660497, -0.376073, -1.516627, 0.249215, 0.205453, -0.031968, -0.109118, -0.077734, 0.043359, -0.972900, -0.062988, 0.420898, 0.096612, -0.003748, -0.015127, 1.000000, -0.000546, -0.000389, 0.000217, -175.774665, -79.829761, -15.405678, , , 0.000000, , , 
30602, , 9.650158, -0.192893, -1.398404, 0.329197, 0.001894, -0.065385, -0.066435, -0.055654, 0.029473, -0.964111, -0.076416, 0.423096, 0.096506, -0.001919, -0.013957, 1.000000, -0.000332, -0.000278, 0.000147, -175.755187, -79.815896, -15.464925, , , 0.000000, , , 
30603, , 9.658491, 0.347372, -0.957415, 0.655543, -0.614955, -0.142328, -0.081747, -0.053482, 0.024394, -0.959717, -0.083008, 0.429688, 0.096587, 0.003482, -0.009550, 1.000000, -0.000409, -0.000267, 0.000122, -175.737259, -79.784326, -15.530733, , , 0.000000, , , 
30604, , 9.570228, 0.533154, -0.854084, 0.704092, -0.812986, -0.249933, -0.189960, -0.041532, 0.027846, -0.955322, -0.091797, 0.429932, 0.095703, 0.005337, -0.008526, 1.000000, -0.000950, -0.000208, 0.000139, -175.794530, -79.780685, -15.584054, , , 0.000000, , , 
30605, , 9.709079, 0.606600, -0.863923, 0.707204, -0.892140, -0.112971, -0.196863, -0.062003, 0.042407, -0.946533, -0.096436, 0.440674, 0.097092, 0.006078, -0.008615, 0.999999, -0.000984, -0.000310, 0.000212, -175.787668, -79.743501, -15.705649, , , 0.000000, , , 
30606, , 10.088686, 0.861230, -0.547791, 1.024918, -1.223159, 0.201143, -0.218143, -0.039100, 0.060086, -0.942139, -0.116211, 0.440918, 0.100885, 0.008637, -0.005468, 0.999999, -0.001091, -0.000196, 0.000300, -175.778255, -79.743923, -15.843799, , , 0.000000, , , 
30607, , 10.208997, 0.721713, -0.325657, 1.286842, -1.141855, 0.281407, -0.311859, -0.004435, 0.075824, -0.931152, -0.129395, 0.436523, 0.102087, 0.007251, -0.003266, 0.999999, -0.001559, -0.000022, 0.000379, -175.718684, -79.738201, -16.085926, , , 0.000000, , , 
30608, , 10.293731, 0.451054, -0.159717, 1.507423, -0.916847, 0.339993, -0.338259, 0.030927, 0.074788, -0.924561, -0.135986, 0.438721, 0.102935, 0.004546, -0.001621, 0.999998, -0.001691, 0.000155, 0.000374, -175.737923, -79.784737, -16.265652, , , 0.000000, , , 
30609, , 10.399885, 0.320533, 0.330540, 2.017094, -0.899899, 0.360370, -0.303271, 0.070613, 0.058298, -0.924316, -0.151367, 0.434570, 0.103999, 0.003241, 0.003264, 0.999999, -0.001516, 0.000353, 0.000291, -175.709815, -79.822629, -16.470765, , , 0.000000, , , 
30610, , 10.686043, 0.392878, 0.953562, 2.630833, -1.114303, 0.535847, -0.305686, 0.126340, 0.049514, -0.915527, -0.164795, 0.437012, 0.106865, 0.003970, 0.009462, 0.999999, -0.001528, 0.000632, 0.000248, -175.772401, -79.933732, -16.587628, , , 0.000000, , , 
30611, , 11.104881, 0.384858, 1.316485, 3.028856, -1.208016, 0.890877, -0.349083, 0.255483, 0.052898, -0.915527, -0.171387, 0.434814, 0.111064, 0.003901, 0.013016, 0.999998, -0.001745, 0.001277, 0.000264, -175.739537, -80.077513, -16.824093, , , 0.000000, , , 
30612, , 11.376570, 0.293344, 1.425168, 3.148725, -1.151602, 1.155568, -0.320511, 0.436780, 0.049414, -0.913330, -0.180176, 0.426270, 0.113796, 0.002984, 0.013998, 0.999996, -0.001603, 0.002184, 0.000247, -175.732093, -80.380133, -17.020542, , , 0.000000, , , 
30613, , 11.658824, 0.395552, 1.939304, 3.603471, -1.373210, 1.366503, -0.318340, 0.649881, 0.038492, -0.910889, -0.195557, 0.415527, 0.116650, 0.004008, 0.019008, 0.999993, -0.001592, 0.003249, 0.000192, -175.613217, -80.749818, -17.325949, , , 0.000000, , , 
30614, , 11.829346, 0.326003, 2.653844, 4.232489, -1.457782, 1.458627, -0.430975, 0.875860, 0.035415, -0.910645, -0.206299, 0.409180, 0.118408, 0.003337, 0.026013, 0.999988, -0.002155, 0.004379, 0.000177, -175.572732, -81.319423, -17.619260, , , 0.000000, , , 
30615, , 11.868082, 0.300782, 3.316060, 4.765664, -1.576724, 1.445145, -0.586912, 1.124084, 0.025954, -0.908447, -0.217285, 0.398438, 0.118864, 0.003119, 0.032484, 0.999980, -0.002935, 0.005620, 0.000130, -175.465918, -81.960418, -18.067111, , , 0.000000, , , 
30616, , 11.893422, 0.120551, 3.389985, 4.720463, -1.401530, 1.532372, -0.757548, 1.401462, -0.010519, -0.908203, -0.226074, 0.383301, 0.119168, 0.001326, 0.033060, 0.999968, -0.003788, 0.007007, -0.000053, -175.561980, -82.852273, -18.409959, , , 0.000000, , , 
30617, , 11.866989, 0.081300, 3.503111, 4.655776, -1.369630, 1.569218, -0.857297, 1.742529, -0.059513, -0.905762, -0.241455, 0.368408, 0.118969, 0.000925, 0.033992, 0.999953, -0.004286, 0.008713, -0.000298, -175.692030, -83.850450, -18.773555, , , 0.000000, , , 
30618, , 11.763317, 0.088559, 3.144113, 4.061208, -1.242711, 1.598966, -0.942530, 2.067667, -0.074274, -0.909668, -0.267822, 0.346924, 0.117950, 0.000986, 0.030218, 0.999935, -0.004713, 0.010338, -0.000371, -175.856967, -85.144508, -19.151627, , , 0.000000, , , 
30619, , 11.231801, -0.052026, 3.109904, 3.776039, -1.040404, 1.163660, -0.949310, 2.382610, -0.060283, -0.907471, -0.276367, 0.321045, 0.112678, -0.000411, 0.029760, 0.999918, -0.004746, 0.011913, -0.000301, -175.456510, -86.508489, -20.098476, , , 0.000000, , , 
30620, , 10.530949, -1.199277, 2.560494, 3.233560, 0.286661, 0.596469, -0.809991, 2.693219, -0.038903, -0.905029, -0.291748, 0.295166, 0.105640, -0.011913, 0.024232, 0.999901, -0.004050, 0.013466, -0.000195, -173.135321, -88.168805, -22.887102, , , 0.000000, , , 
30621, , 9.416422, -2.135705, 2.020949, 2.678425, 1.410137, -0.424093, -0.490673, 2.964315, 0.007441, -0.911377, -0.302734, 0.277832, 0.094451, -0.021306, 0.018863, 0.999887, -0.002453, 0.014821, 0.000037, -118.916014, -89.750613, -77.390818, , , 0.000000, , , 
30622, , 8.335790, -3.299562, 1.015993, 1.767095, 2.884860, -1.448834, -0.043292, 3.115569, 0.074811, -0.911377, -0.306885, 0.256348, 0.083515, -0.032962, 0.008867, 0.999879, -0.000216, 0.015577, 0.000374, -8.187289, -88.191578, 171.852039, , , 0.000000, , , 
30623, , 7.693425, -3.909132, 0.654326, 1.361437, 3.635528, -2.078215, 0.495688, 3.103438, 0.107923, -0.917725, -0.306885, 0.236816, 0.077044, -0.039064, 0.005251, 0.999876, 0.002478, 0.015517, 0.000540, -4.901568, -86.417217, 168.847376, , , 0.000000, , , 
30624, , 8.761577, -4.284836, 0.396539, 0.866456, 4.154688, -1.022758, 0.909522, 2.917970, 0.116695, -0.922119, -0.302490, 0.221680, 0.087684, -0.042811, 0.002492, 0.999883, 0.004547, 0.014589, 0.000583, -3.670999, -84.624518, 168.135161, , , 0.000000, , , 
30625, , 10.568423, -4.614496, 0.386254, 0.470487, 4.587591, 0.763571, 1.049216, 2.773407, 0.120317, -0.915771, -0.295898, 0.219482, 0.105750, -0.046096, 0.002154, 0.999890, 0.005246, 0.013867, 0.000602, -2.867613, -83.033947, 167.931802, , , 0.000000, , , 
30626, , 12.212300, -3.941233, 0.799445, 0.141774, 3.956829, 2.419490, 1.042217, 2.484781, 0.072822, -0.920166, -0.287109, 0.212891, 0.122222, -0.039404, 0.006271, 0.999909, 0.005211, 0.012424, 0.000364, -2.281010, -81.498593, 167.938822, , , 0.000000, , , 
30627, , 14.232046, -2.936276, 1.834884, 0.270553, 2.880587, 4.545580, 0.715876, 2.122072, -0.000017, -0.909668, -0.273926, 0.217285, 0.142504, -0.029425, 0.016732, 0.999937, 0.003579, 0.010610, -0.000000, -1.612797, -80.283223, 167.677501, , , 0.000000, , , 
30628, , 16.029783, -1.822133, 0.468930, -1.956822, 2.284854, 6.043961, 0.307825, 2.222639, -0.137846, -0.916260, -0.265137, 0.212891, 0.160324, -0.018337, 0.002879, 0.999937, 0.001539, 0.011113, -0.000689, -1.052856, -78.910515, 167.280199, , , 0.000000, , , 
30629, , 14.736667, 0.525040, -0.336091, -3.383025, 0.253145, 4.541312, -0.070273, 2.534290, -0.233880, -0.907959, -0.260742, 0.204102, 0.147314, 0.005076, -0.005230, 0.999919, -0.000351, 0.012671, -0.001169, -0.366346, -77.459972, 166.537747, , , 0.000000, , , 
30630, , 13.589054, 2.745284, -0.364415, -4.064348, -1.834401, 3.318794, -0.422602, 2.693450, -0.286092, -0.901367, -0.263184, 0.199951, 0.135864, 0.027248, -0.005532, 0.999906, -0.002113, 0.013467, -0.001430, -0.065075, -75.835575, 165.969430, , , 0.000000, , , 
30631, , 10.792146, 4.036100, 1.450176, -2.323367, -3.574676, 0.989153, -0.239588, 2.641587, -0.146013, -0.886475, -0.269775, 0.197754, 0.108129, 0.040298, 0.013026, 0.999912, -0.001198, 0.013208, -0.000730, 0.109514, -74.321754, 165.646699, , , 0.000000, , , 
30632, , 9.446237, 4.801114, 3.953888, -0.094478, -4.928064, 0.366489, -0.132494, 2.311391, -0.061711, -0.871094, -0.285400, 0.182861, 0.094925, 0.048008, 0.038412, 0.999933, -0.000662, 0.011557, -0.000309, 0.062483, -72.931228, 165.609156, , , 0.000000, , , 
30633, , 9.144554, 3.916603, 4.247259, 0.257747, -4.118708, 0.185701, -0.424891, 1.990243, 0.097170, -0.860352, -0.302979, 0.176514, 0.091843, 0.039299, 0.041477, 0.999948, -0.002124, 0.009951, 0.000486, -0.347081, -71.790484, 165.783450, , , 0.000000, , , 
30634, , 8.380085, 1.791303, 4.563185, 1.098132, -2.186982, -0.417730, -1.037557, 1.798291, 0.184454, -0.851074, -0.335938, 0.157227, 0.084189, 0.018224, 0.044782, 0.999946, -0.005188, 0.008991, 0.000922, -1.225201, -70.691977, 166.080978, , , 0.000000, , , 
30635, , 7.969448, -0.583809, 4.038064, 1.196495, 0.184570, -0.941878, -1.284577, 1.635035, 0.150669, -0.840088, -0.360107, 0.127197, 0.080025, -0.005521, 0.039763, 0.999946, -0.006423, 0.008175, 0.000753, -2.124953, -69.752752, 166.254957, , , 0.000000, , , 
30636, , 8.057760, -1.226624, 4.277842, 1.403274, 0.728152, -0.744556, -1.203611, 1.542950, 0.068829, -0.826904, -0.382324, 0.103516, 0.080909, -0.011983, 0.042228, 0.999952, -0.006018, 0.007715, 0.000344, -2.821156, -68.799883, 166.261063, , , 0.000000, , , 
30637, , 7.771088, -1.653950, 3.192551, 0.531197, 1.390732, -1.380583, -1.222549, 1.458364, 0.018358, -0.818115, -0.410889, 0.075684, 0.077943, -0.016339, 0.031458, 0.999955, -0.006113, 0.007292, 0.000092, -3.433008, -67.964657, 166.165725, , , 0.000000, , , 
30638, , 7.446240, -1.583302, 2.263875, -0.300673, 1.553918, -2.029838, -0.913476, 1.284349, -0.016624, -0.813477, -0.430664, 0.047852, 0.074605, -0.015737, 0.022232, 0.999969, -0.004567, 0.006422, -0.000083, -3.836151, -67.164484, 166.032644, , , 0.000000, , , 
30639, , 7.584959, -0.731882, 1.933399, -0.985165, 0.861492, -2.060789, -0.746216, 1.180444, -0.042714, -0.802490, -0.443848, 0.015625, 0.075960, -0.007264, 0.018913, 0.999976, -0.003731, 0.005902, -0.000214, -4.097241, -66.491114, 165.851569, , , 0.000000, , , 
30640, , 7.337089, -0.314010, 1.531103, -1.458683, 0.576820, -2.476840, -0.636130, 1.175151, -0.053055, -0.791748, -0.459229, -0.005859, 0.073458, -0.003112, 0.014890, 0.999978, -0.003181, 0.005876, -0.000265, -4.305796, -65.762885, 165.676256, , , 0.000000, , , 
30641, , 6.733124, 0.203437, 2.285294, -0.809846, -0.181275, -2.748010, -0.490859, 1.106645, -0.033872, -0.789551, -0.468018, -0.038330, 0.067457, 0.002078, 0.022475, 0.999982, -0.002454, 0.005533, -0.000169, -4.438756, -65.131790, 165.513231, , , 0.000000, , , 
30642, , 6.222618, 0.410379, 2.999478, -0.138954, -0.633781, -2.923218, -0.611764, 1.035143, -0.015295, -0.778564, -0.483398, -0.064209, 0.062381, 0.004190, 0.029659, 0.999982, -0.003059, 0.005176, -0.000076, -4.691707, -64.489994, 165.400669, , , 0.000000, , , 
30643, , 6.074631, 0.147213, 3.070588, -0.003139, -0.419347, -3.017462, -0.697994, 0.912671, 0.013960, -0.780518, -0.489746, -0.098633, 0.060885, 0.001583, 0.030423, 0.999983, -0.003490, 0.004563, 0.000070, -5.016375, -63.967896, 165.317100, , , 0.000000, , , 
30644, , 6.017741, -0.047317, 3.539459, 0.410609, -0.393395, -2.854273, -0.769535, 0.779005, 0.060265, -0.774170, -0.498535, -0.126709, 0.060315, -0.000319, 0.035161, 0.999985, -0.003848, 0.003895, 0.000301, -5.459816, -63.471790, 165.316100, , , 0.000000, , , 
30645, , 5.866138, -0.387555, 3.781377, 0.735581, -0.183905, -2.863917, -0.851961, 0.647210, 0.106613, -0.776123, -0.511719, -0.148193, 0.058785, -0.003684, 0.037640, 0.999986, -0.004260, 0.003236, 0.000533, -5.995070, -63.096332, 165.368842, , , 0.000000, , , 
30646, , 5.756206, -1.028190, 3.628936, 0.823223, 0.431465, -2.993875, -0.806640, 0.532970, 0.141977, -0.780273, -0.524902, -0.178467, 0.057666, -0.010095, 0.036177, 0.999988, -0.004033, 0.002665, 0.000710, -6.562930, -62.736075, 165.484090, , , 0.000000, , , 
30647, , 5.766672, -1.550963, 3.692798, 1.016657, 0.877213, -2.921133, -0.586921, 0.425244, 0.168605, -0.773682, -0.533691, -0.199951, 0.057758, -0.015353, 0.036850, 0.999993, -0.002935, 0.002126, 0.000843, -7.028566, -62.482303, 165.629775, , , 0.000000, , , 
30648, , 5.817157, -1.817721, 3.963796, 1.275581, 1.021637, -2.728609, -0.344545, 0.321137, 0.198789, -0.784180, -0.535645, -0.217285, 0.058253, -0.018051, 0.039576, 0.999997, -0.001723, 0.001606, 0.000994, -7.415064, -62.237898, 165.838464, , , 0.000000, , , 
30649, , 5.913649, -1.983678, 4.139698, 1.410190, 1.113792, -2.545356, -0.095838, 0.237003, 0.228225, -0.784180, -0.544434, -0.234375, 0.059208, -0.019749, 0.041336, 0.999999, -0.000479, 0.001185, 0.001141, -7.681524, -62.085681, 166.077696, , , 0.000000, , , 
30650, , 5.920022, -2.034897, 4.768211, 1.911408, 0.939640, -2.237276, 0.052951, 0.175289, 0.265429, -0.792725, -0.548584, -0.256104, 0.059269, -0.020283, 0.047625, 0.999999, 0.000265, 0.000876, 0.001327, -7.933650, -61.917183, 166.390830, , , 0.000000, , , 
30651, , 5.788029, -2.143028, 5.445933, 2.543844, 0.789531, -2.024395, 0.103560, 0.138363, 0.293087, -0.799072, -0.555176, -0.262451, 0.057949, -0.021374, 0.054408, 0.999999, 0.000518, 0.000692, 0.001465, -8.164365, -61.814733, 166.719741, , , 0.000000, , , 
30652, , 5.887549, -2.308925, 6.037813, 3.013040, 0.748231, -1.638872, 0.094891, 0.119735, 0.310280, -0.794678, -0.552979, -0.279785, 0.058947, -0.023026, 0.060332, 0.999999, 0.000474, 0.000599, 0.001551, -8.449747, -61.669166, 167.096871, , , 0.000000, , , 
30653, , 6.247834, -2.384090, 6.605324, 3.316117, 0.657839, -1.042271, 0.095843, 0.123471, 0.315220, -0.801025, -0.561523, -0.286133, 0.062557, -0.023774, 0.066003, 0.999998, 0.000479, 0.000617, 0.001576, -8.705726, -61.571814, 167.450229, , , 0.000000, , , 
30654, , 6.740482, -1.864668, 7.380397, 3.509076, -0.050769, -0.269885, -0.009182, 0.135044, 0.315732, -0.805420, -0.561523, -0.299072, 0.067484, -0.018537, 0.073759, 0.999999, -0.000046, 0.000675, 0.001579, -9.054399, -61.409088, 167.830724, , , 0.000000, , , 
30655, , 7.171040, -1.587997, 8.059229, 3.734932, -0.528208, 0.418033, -0.424363, 0.219235, 0.359900, -0.811768, -0.559326, -0.316406, 0.071827, -0.015580, 0.080547, 0.999996, -0.002122, 0.001096, 0.001799, -9.632204, -61.251179, 168.212149, , , 0.000000, , , 
30656, , 6.869772, -2.858608, 7.065043, 3.452219, 0.912549, -0.193481, -0.628432, 0.380855, 0.397472, -0.815918, -0.563477, -0.329346, 0.068889, -0.028227, 0.070608, 0.999991, -0.003142, 0.001904, 0.001987, -10.364830, -60.930525, 168.627366, , , 0.000000, , , 
30657, , 7.167775, -3.915715, 6.690260, 3.327963, 2.006226, 0.004071, -0.387103, 0.360140, 0.376685, -0.813965, -0.561279, -0.351074, 0.071872, -0.038892, 0.066849, 0.999995, -0.001936, 0.001801, 0.001883, -10.897997, -60.687393, 168.984036, , , 0.000000, , , 
30658, , 8.012404, -4.426097, 6.431981, 2.831266, 2.614898, 0.689944, -0.178077, 0.353858, 0.376789, -0.818115, -0.559082, -0.359863, 0.080321, -0.044053, 0.064217, 0.999996, -0.000890, 0.001769, 0.001884, -11.348767, -60.374982, 169.371371, , , 0.000000, , , 
30659, , 7.833542, -4.426576, 6.975884, 3.304116, 2.383347, 0.818592, -0.058134, 0.317362, 0.406620, -0.824707, -0.554443, -0.370605, 0.078536, -0.044086, 0.069647, 0.999997, -0.000291, 0.001587, 0.002033, -11.717852, -60.149696, 169.758075, , , 0.000000, , , 
30660, , 7.632324, -4.937777, 9.237576, 5.320078, 2.027516, 1.830012, 0.001215, 0.335458, 0.387270, -0.829102, -0.554443, -0.385742, 0.076573, -0.049230, 0.092247, 0.999997, 0.000006, 0.001677, 0.001936, -12.079757, -59.840174, 170.159292, , , 0.000000, , , 
30661, , 8.354121, -5.854824, 11.796451, 7.246946, 2.038898, 3.845657, 0.004500, 0.556956, 0.346538, -0.829102, -0.554443, -0.396484, 0.083971, -0.058406, 0.117730, 0.999995, 0.000022, 0.002785, 0.001733, -12.293527, -59.485764, 170.409967, , , 0.000000, , , 
30662, , 9.383010, -5.581284, 12.721784, 7.217461, 1.543164, 5.239197, -0.077632, 1.086309, 0.369337, -0.822754, -0.552246, -0.418213, 0.094622, -0.055589, 0.126727, 0.999983, -0.000388, 0.005432, 0.001847, -12.525901, -58.744072, 170.606670, , , 0.000000, , , 
30663, , 6.287884, -2.986684, 12.979810, 7.936461, -1.264686, 2.529998, -0.704892, 1.331920, 0.492508, -0.820801, -0.543457, -0.441895, 0.063814, -0.029254, 0.129479, 0.999969, -0.003524, 0.006660, 0.002463, -13.101372, -57.936743, 170.808262, , , 0.000000, , , 
30664, , 5.004034, -2.220898, 3.884089, 1.152910, 1.086409, -3.289709, -0.854602, 0.084846, 0.169712, -0.827148, -0.541260, -0.446289, 0.050076, -0.022000, 0.038914, 0.999990, -0.004273, 0.000424, 0.000849, -13.789409, -57.762520, 171.018202, , , 0.000000, , , 
30665, , 11.330996, -0.740727, -0.427369, -6.029749, 1.790933, -0.349209, 0.869916, -0.243252, -0.193505, -0.820801, -0.539062, -0.444092, 0.113308, -0.007499, -0.004168, 0.999989, 0.004350, -0.001216, -0.000968, -13.171002, -57.923232, 170.876486, , , 0.000000, , , 
30666, , 13.475836, 0.820932, -1.082037, -8.198780, 0.755473, 0.941479, 0.803279, -0.116416, -0.180969, -0.820557, -0.547852, -0.446289, 0.134772, 0.008131, -0.010709, 0.999991, 0.004016, -0.000582, -0.000905, -12.641354, -57.919396, 170.769590, , , 0.000000, , , 
30667, , 13.262699, 0.702386, 0.341927, -6.894094, 0.357253, 1.538650, 0.413372, -0.464693, -0.205446, -0.820557, -0.547852, -0.441895, 0.132626, 0.006880, 0.003742, 0.999995, 0.002067, -0.002323, -0.001027, -12.312277, -58.204074, 170.660914, , , 0.000000, , , 
30668, , 10.825361, 1.017571, 2.475325, -4.012665, -0.882267, 0.554131, 0.214826, -0.504673, -0.180267, -0.822754, -0.547852, -0.437744, 0.108200, 0.010051, 0.025037, 0.999996, 0.001074, -0.002523, -0.000901, -12.187638, -58.440805, 170.636788, , , 0.000000, , , 
30669, , 8.873102, 1.645966, -0.238496, -5.290078, -0.711524, -2.532149, 0.952587, -0.771187, -0.130830, -0.824951, -0.547852, -0.428955, 0.088750, 0.016412, -0.001965, 0.999981, 0.004763, -0.003856, -0.000654, -11.671286, -58.887861, 170.671268, , , 0.000000, , , 
30670, , 7.723695, 3.290652, -1.021732, -5.800596, -2.118629, -4.034170, 1.301722, -0.866421, -0.132984, -0.826904, -0.547852, -0.411621, 0.077302, 0.032919, -0.009668, 0.999969, 0.006509, -0.004332, -0.000665, -11.016961, -59.336427, 170.759855, , , 0.000000, , , 
30671, , 6.980380, 2.384439, 1.240881, -3.237791, -2.081545, -3.399095, 0.512382, -1.134047, -0.254574, -0.826904, -0.550049, -0.403076, 0.069762, 0.023723, 0.012865, 0.999980, 0.002562, -0.005670, -0.001273, -10.687559, -60.001248, 170.718359, , , 0.000000, , , 
30672, , 7.619751, 0.166752, 0.398761, -3.442036, 0.329111, -3.008988, 0.359694, -1.448076, -0.511678, -0.833252, -0.550049, -0.385742, 0.076170, 0.001465, 0.004542, 0.999969, 0.001798, -0.007240, -0.002558, -10.278318, -60.830133, 170.472606, , , 0.000000, , , 
30673, , 8.663777, 1.441073, 1.748525, -3.103148, -1.209557, -1.500074, 0.551486, -1.878011, -0.792118, -0.833252, -0.556641, -0.355469, 0.086524, 0.014018, 0.018337, 0.999944, 0.002757, -0.009390, -0.003961, -9.480838, -61.967275, 169.924232, , , 0.000000, , , 
30674, , 11.517020, 1.944841, 0.107627, -5.737785, -0.916161, 0.319812, 0.535401, -2.170495, -0.947463, -0.835449, -0.552246, -0.329590, 0.115240, 0.018897, 0.002378, 0.999926, 0.002677, -0.010852, -0.004737, -8.551103, -63.250176, 169.213070, , , 0.000000, , , 
30675, , 13.325895, 1.926834, -0.897558, -7.113585, -0.408351, 1.646753, 1.046383, -2.138530, -1.004584, -0.839355, -0.563232, -0.299316, 0.133439, 0.018640, -0.007451, 0.999917, 0.005232, -0.010692, -0.005023, -7.128911, -64.541736, 168.297071, , , 0.000000, , , 
30676, , 13.370220, 3.395663, 0.998479, -5.687005, -2.336881, 2.575929, 1.026879, -2.006480, -1.011662, -0.843750, -0.558838, -0.271240, 0.133761, 0.033224, 0.011498, 0.999924, 0.005134, -0.010032, -0.005058, -5.600427, -65.734669, 167.254847, , , 0.000000, , , 
30677, , 11.743240, 3.003643, 1.769148, -3.981821, -2.292209, 1.542523, 0.445977, -1.832375, -0.938357, -0.839600, -0.552490, -0.251709, 0.117402, 0.029444, 0.018833, 0.999945, 0.002230, -0.009162, -0.004692, -4.332798, -66.826367, 166.149435, , , 0.000000, , , 
30678, , 9.590593, 1.367248, 1.347533, -2.821744, -0.780321, -0.480445, 0.120383, -1.711794, -0.795653, -0.839600, -0.545898, -0.230225, 0.095839, 0.013283, 0.014304, 0.999955, 0.000602, -0.008559, -0.003978, -3.341857, -67.832223, 165.148548, , , 0.000000, , , 
30679, , 8.323313, 0.416290, 1.690391, -1.605192, -0.083776, -1.462673, 0.031228, -1.658151, -0.613493, -0.843994, -0.534912, -0.208740, 0.083101, 0.003905, 0.017594, 0.999961, 0.000156, -0.008291, -0.003067, -2.564453, -68.798319, 164.331236, , , 0.000000, , , 
30680, , 7.871753, -0.615311, 1.709358, -0.971452, 0.844660, -1.837329, -0.104627, -1.605555, -0.423482, -0.846436, -0.519531, -0.187256, 0.078564, -0.006310, 0.017728, 0.999965, -0.000523, -0.008028, -0.002117, -2.086572, -69.728860, 163.755624, , , 0.000000, , , 
30681, , 8.027980, -1.249961, 1.792049, -0.616508, 1.420861, -1.638231, -0.010978, -1.678936, -0.258287, -0.846924, -0.495605, -0.174316, 0.080109, -0.012602, 0.018594, 0.999964, -0.000055, -0.008395, -0.001291, -1.772084, -70.694437, 163.414738, , , 0.000000, , , 
30682, , 8.801519, -2.817162, 1.638316, -0.358553, 2.998743, -0.926523, 0.183203, -1.879138, -0.179690, -0.853516, -0.473633, -0.146484, 0.087831, -0.028266, 0.017183, 0.999955, 0.000916, -0.009396, -0.000898, -1.463707, -71.777437, 163.198695, , , 0.000000, , , 
30683, , 10.528644, -5.465205, 0.594062, -0.824763, 5.947899, 0.434915, 0.682590, -2.024521, -0.140118, -0.860352, -0.447266, -0.122803, 0.105182, -0.054748, 0.006819, 0.999943, 0.003413, -0.010122, -0.000701, -0.895682, -72.937989, 163.013068, , , 0.000000, , , 
30684, , 10.344378, -4.744444, 0.889493, -0.565322, 5.138243, 0.364943, 2.008154, -2.249826, -0.246155, -0.867188, -0.423096, -0.092773, 0.103280, -0.047666, 0.009580, 0.999886, 0.010040, -0.011249, -0.001231, 0.683137, -74.235062, 162.562467, , , 0.000000, , , 
30685, , 9.705594, -0.003885, 1.339447, -1.169014, 0.425871, -0.094635, 2.518104, -2.178578, -0.353369, -0.871826, -0.401123, -0.064941, 0.096902, -0.000388, 0.014447, 0.999860, 0.012590, -0.010892, -0.001767, 3.022099, -75.475299, 161.634153, , , 0.000000, , , 
30686, , 9.055120, 3.297203, 1.626405, -1.384422, -2.884457, -0.578534, 1.636601, -2.190622, -0.334762, -0.876465, -0.376953, -0.050049, 0.090419, 0.032681, 0.017523, 0.999905, 0.008183, -0.010953, -0.001674, 5.020829, -76.725338, 160.536106, , , 0.000000, , , 
30687, , 7.985158, 5.258224, 0.091492, -2.848900, -4.513285, -1.879902, 0.902075, -2.444645, -0.351766, -0.881104, -0.354980, -0.030762, 0.079923, 0.052434, 0.002128, 0.999914, 0.004510, -0.012223, -0.001759, 7.096131, -78.096264, 158.939420, , , 0.000000, , , 
30688, , 8.976090, 6.673698, -0.464884, -3.671309, -5.711192, -0.911982, 0.284420, -2.674941, -0.369311, -0.892090, -0.326416, -0.017822, 0.089935, 0.066576, -0.003352, 0.999908, 0.001422, -0.013374, -0.001847, 9.405171, -79.595894, 156.750559, , , 0.000000, , , 
30689, , 9.923874, 4.077549, -0.457468, -2.947492, -3.159962, 0.017901, -0.062963, -2.580927, -0.200287, -0.907227, -0.317383, -0.013672, 0.099328, 0.040675, -0.003306, 0.999916, -0.000315, -0.012904, -0.001001, 11.608061, -81.028463, 154.479397, , , 0.000000, , , 
30690, , 9.546110, 2.475288, 1.137940, -0.741441, -2.049767, -0.127912, 0.379448, -2.192009, -0.025369, -0.918213, -0.302002, -0.013916, 0.095332, 0.024718, 0.012472, 0.999938, 0.001897, -0.010960, -0.000127, 13.849952, -82.265359, 152.434608, , , 0.000000, , , 
30691, , 9.562272, 2.347672, 1.757031, 0.091777, -2.121493, -0.039104, -0.080667, -2.174758, 0.071028, -0.935303, -0.290771, -0.018311, 0.095416, 0.023518, 0.018599, 0.999941, -0.000403, -0.010874, 0.000355, 16.057961, -83.479226, 150.162964, , , 0.000000, , , 
30692, , 9.649350, 0.894612, 1.024322, -0.068805, -0.595421, -0.086624, -0.150716, -2.254254, 0.114906, -0.948242, -0.281738, -0.011963, 0.096365, 0.009010, 0.011323, 0.999936, -0.000754, -0.011271, 0.000575, 19.271826, -84.742402, 146.847261, , , 0.000000, , , 
30693, , 9.990976, 1.110411, 1.141402, 0.184812, -0.878463, 0.264260, 0.038482, -2.357744, 0.043638, -0.961182, -0.277344, -0.014160, 0.099764, 0.011124, 0.012593, 0.999930, 0.000192, -0.011788, 0.000218, 25.340589, -86.002797, 140.781187, , , 0.000000, , , 
30694, , 9.811482, 0.451969, 0.502759, -0.040359, -0.152085, 0.020589, -0.035308, -2.273869, -0.000683, -0.976318, -0.277100, -0.014160, 0.098049, 0.004520, 0.006142, 0.999935, -0.000177, -0.011369, -0.000003, 36.785147, -87.131812, 129.298084, , , 0.000000, , , 
30695, , 9.129379, -0.841661, 0.301107, 0.309255, 1.077319, -0.708587, 0.258853, -2.334854, -0.102139, -0.984619, -0.277100, -0.007568, 0.091246, -0.008468, 0.004066, 0.999931, 0.001294, -0.011674, -0.000511, 61.756888, -87.979794, 104.453428, , , 0.000000, , , 
30696, , 8.994573, -1.490204, -0.041613, 0.342612, 1.746982, -0.871114, 0.678121, -2.457770, -0.185727, -1.001709, -0.287842, -0.007568, 0.089928, -0.014987, 0.000638, 0.999918, 0.003391, -0.012289, -0.000929, 104.139885, -88.046451, 62.437057, , , 0.000000, , , 
30697, , 9.319519, -2.031143, -0.247322, 0.488304, 2.297313, -0.564992, 1.025765, -2.620443, -0.229278, -1.012207, -0.298584, -0.003174, 0.093194, -0.020409, -0.001357, 0.999900, 0.005129, -0.013102, -0.001146, 134.773573, -87.164039, 32.366910, , , 0.000000, , , 
30698, , 9.570737, -2.348085, 0.076557, 1.112940, 2.509795, -0.348220, 1.190788, -2.716035, -0.224083, -1.022705, -0.307373, 0.011963, 0.095660, -0.023597, 0.001925, 0.999889, 0.005954, -0.013580, -0.001120, 149.540133, -85.834973, 18.258180, , , 0.000000, , , 
30699, , 9.416080, -2.499390, -0.254272, 1.038593, 2.693482, -0.504823, 1.324389, -2.757338, -0.186675, -1.031006, -0.320312, 0.020752, 0.094162, -0.025070, -0.001410, 0.999883, 0.006622, -0.013786, -0.000933, 157.418543, -84.371521, 11.113216, , , 0.000000, , , 
30700, , 8.721069, -2.748976, -1.470751, 0.038622, 3.127576, -1.095415, 1.624785, -2.634091, -0.143768, -1.034912, -0.337891, 0.035889, 0.087377, -0.027438, -0.013780, 0.999880, 0.008124, -0.013170, -0.000719, 162.375673, -82.915780, 7.063050, , , 0.000000, , , 
30701, , 7.554539, -2.435002, -1.760597, -0.281109, 2.804582, -2.186858, 2.061422, -2.599909, -0.086745, -1.043213, -0.357666, 0.055420, 0.075757, -0.024206, -0.016872, 0.999862, 0.010307, -0.012999, -0.000434, 166.154046, -81.468882, 4.441778, , , 0.000000, , , 
30702, , 7.252238, -1.096746, -1.428464, -0.062377, 1.370156, -2.467306, 2.312505, -2.631704, -0.025401, -1.046875, -0.379639, 0.070801, 0.072702, -0.010818, -0.013454, 0.999847, 0.011562, -0.013158, -0.000127, 169.415710, -79.982543, 2.480718, , , 0.000000, , , 
30703, , 7.578886, 0.783780, -0.754185, 0.577587, -0.635669, -2.204724, 2.288231, -2.569992, 0.024486, -1.048828, -0.397217, 0.090332, 0.075876, 0.007925, -0.006477, 0.999852, 0.011441, -0.012849, 0.000122, 172.049959, -78.532196, 1.134120, , , 0.000000, , , 
30704, , 8.865809, 2.056042, -0.392671, 1.274681, -1.981360, -1.013403, 2.102524, -2.548991, 0.016729, -1.048340, -0.419189, 0.120605, 0.088695, 0.020600, -0.002580, 0.999864, 0.010512, -0.012744, 0.000084, 174.162036, -77.074417, 0.207377, , , 0.000000, , , 
30705, , 10.992456, 2.604157, -0.490083, 1.897108, -2.555718, 1.037008, 1.928102, -2.577985, 0.021205, -1.048096, -0.438965, 0.151123, 0.109971, 0.026090, -0.003232, 0.999870, 0.009640, -0.012889, 0.000106, 175.846296, -75.604739, -0.388911, , , 0.000000, , , 
30706, , 13.032629, 2.437635, -0.939446, 2.330060, -2.402943, 3.050395, 1.734761, -2.556456, 0.027511, -1.032959, -0.450195, 0.181396, 0.130427, 0.024465, -0.007516, 0.999881, 0.008673, -0.012782, 0.000138, 177.249397, -74.137614, -0.811475, , , 0.000000, , , 
30707, , 13.059158, 1.754508, -0.566356, 3.077706, -1.782453, 2.887010, 1.585923, -2.292442, 0.029175, -1.023926, -0.470215, 0.211914, 0.130641, 0.017600, -0.004027, 0.999903, 0.007929, -0.011462, 0.000146, 178.383654, -72.826457, -1.046709, , , 0.000000, , , 
30708, , 10.950565, 0.916463, 1.144064, 4.385073, -1.021939, 0.276235, 1.514744, -1.874193, -0.018763, -1.008789, -0.477051, 0.231445, 0.109392, 0.009062, 0.012535, 0.999927, 0.007574, -0.009371, -0.000094, 179.294550, -71.751641, -1.091278, , , 0.000000, , , 
30709, , 9.782870, 0.999671, 2.731475, 5.699502, -1.121399, -1.421011, 1.440824, -1.599175, -0.031560, -1.006592, -0.490234, 0.257324, 0.097607, 0.009780, 0.028167, 0.999942, 0.007204, -0.007996, -0.000158, -179.918094, -70.836011, -1.050946, , , 0.000000, , , 
30710, , 10.100253, 1.544985, 3.241124, 6.415724, -1.640192, -1.383399, 1.222174, -1.369273, 0.039805, -0.991455, -0.490479, 0.270508, 0.100774, 0.015269, 0.033195, 0.999958, 0.006111, -0.006846, 0.000199, -179.168759, -70.059109, -1.103013, , , 0.000000, , , 
30711, , 11.323212, 1.533016, 2.601762, 6.359306, -1.609806, -0.101847, 1.104224, -1.098074, 0.134847, -0.991455, -0.492676, 0.283447, 0.113076, 0.015260, 0.026723, 0.999969, 0.005521, -0.005490, 0.000674, -178.362983, -69.429151, -1.287508, , , 0.000000, , , 
30712, , 12.755728, 1.015809, 1.344633, 5.797294, -1.110258, 1.619978, 1.163679, -0.900213, 0.203372, -0.987305, -0.490479, 0.298584, 0.127484, 0.010207, 0.014080, 0.999972, 0.005818, -0.004501, 0.001017, -177.444226, -68.927854, -1.557982, , , 0.000000, , , 
30713, , 13.998234, 0.624116, 0.439509, 5.505220, -0.763058, 3.057522, 1.217646, -0.799064, 0.211417, -0.987305, -0.492676, 0.302979, 0.139957, 0.006360, 0.004993, 0.999973, 0.006088, -0.003995, 0.001057, -176.497863, -68.464982, -1.824909, , , 0.000000, , , 
30714, , 14.566539, 0.170992, -0.899254, 4.552775, -0.386212, 4.048918, 1.131107, -0.656626, 0.195292, -0.980957, -0.484131, 0.322266, 0.145692, 0.001901, -0.008504, 0.999978, 0.005655, -0.003283, 0.000976, -175.641287, -68.109206, -2.050660, , , 0.000000, , , 
30715, , 14.563154, 0.274160, -0.946668, 4.594820, -0.523316, 4.031805, 1.048249, -0.506388, 0.156343, -0.981201, -0.473145, 0.322266, 0.145653, 0.002904, -0.009083, 0.999983, 0.005241, -0.002532, 0.000782, -174.878802, -67.813393, -2.225293, , , 0.000000, , , 
30716, , 15.018174, 0.659780, 0.719522, 6.381687, -0.843349, 3.791028, 0.744518, -0.376181, 0.109267, -0.989746, -0.466309, 0.315674, 0.150164, 0.006652, 0.007502, 0.999991, 0.003723, -0.001881, 0.000546, -174.356760, -67.626729, -2.329984, , , 0.000000, , , 
30717, , 15.335668, 0.396932, 1.978831, 7.687805, -0.512603, 3.599655, 0.597791, -0.101773, 0.078637, -0.994141, -0.455322, 0.315430, 0.153345, 0.003970, 0.019878, 0.999995, 0.002989, -0.000509, 0.000393, -173.919357, -67.564881, -2.432616, , , 0.000000, , , 
30718, , 14.577580, -0.106419, 3.282167, 8.561510, 0.094075, 2.434003, 0.677133, 0.161423, 0.089847, -1.009277, -0.442139, 0.302490, 0.145803, -0.001110, 0.032700, 0.999994, 0.003386, 0.000807, 0.000449, -173.390363, -67.695123, -2.586929, , , 0.000000, , , 
30719, , 15.129326, -0.082668, 4.247148, 9.635354, 0.139061, 2.600293, 0.815548, 0.267317, 0.159009, -1.022461, -0.422119, 0.284912, 0.151351, -0.000879, 0.042266, 0.999990, 0.004078, 0.001337, 0.000795, -172.655672, -67.836877, -2.875817, , , 0.000000, , , 
30720, , 17.180120, 1.133346, 4.942521, 11.074424, -1.057418, 4.226831, 0.915191, 0.465124, 0.310311, -1.050781, -0.390869, 0.260986, 0.171898, 0.011375, 0.049078, 0.999986, 0.004576, 0.002326, 0.001552, -171.609399, -68.133459, -3.440302, , , 0.000000, , , 
30721, , 18.234475, 2.102534, 4.798904, 11.318770, -2.098679, 5.267933, 0.803920, 0.895619, 0.488814, -1.085693, -0.344482, 0.234619, 0.182506, 0.021280, 0.047257, 0.999979, 0.004020, 0.004478, 0.002444, -170.246665, -68.596881, -4.410768, , , 0.000000, , , 
30722, , 17.361937, 2.435850, 4.809833, 10.863138, -2.480498, 4.551809, 0.630613, 1.455364, 0.545012, -1.127441, -0.289062, 0.188721, 0.173897, 0.024683, 0.046911, 0.999965, 0.003153, 0.007277, 0.002725, -168.688692, -69.432313, -5.693628, , , 0.000000, , , 
30723, , 18.029703, 3.190599, 4.173096, 10.302455, -3.432847, 5.508079, 0.163891, 2.201264, 0.547828, -1.177979, -0.200439, 0.142578, 0.180654, 0.032367, 0.039770, 0.999935, 0.000819, 0.011006, 0.002739, -167.020047, -70.600274, -7.369147, , , 0.000000, , , 
30724, , 18.719561, 2.763398, -1.468029, 4.653082, -3.815746, 8.186122, 0.537291, 3.879630, 0.886418, -1.216064, -0.090088, 0.079102, 0.186740, 0.028508, -0.018230, 0.999798, 0.002686, 0.019397, 0.004432, -163.516892, -72.708642, -10.734868, , , 0.000000, , , 
30725, , 12.909743, 1.300931, 1.199573, 4.761271, -1.922931, 2.162203, 2.060801, 4.636579, 0.388914, -1.254639, 0.033203, 0.034912, 0.129306, 0.013157, 0.009135, 0.999676, 0.010303, 0.023180, 0.001944, -158.608300, -75.151327, -14.613076, , , 0.000000, , , 
30726, , 13.957716, 2.245044, 2.139747, 5.418198, -2.932410, 3.088443, -1.011788, 4.823341, 0.348023, -1.269531, 0.165039, 0.025391, 0.139998, 0.022790, 0.017910, 0.999695, -0.005058, 0.024114, 0.001740, -153.753759, -77.692652, -20.199483, , , 0.000000, , , 
30727, , 12.303682, -5.482983, -3.609401, -1.831241, 4.124844, 3.381358, -2.767435, 5.075826, 0.465654, -1.273438, 0.274902, 0.044189, 0.122209, -0.055066, -0.038442, 0.999580, -0.013835, 0.025376, 0.002328, -146.801510, -80.093617, -28.898148, , , 0.000000, , , 
30728, , 12.442899, -8.615314, -7.212993, -6.142454, 6.942859, 4.155449, -0.794387, 4.999984, 0.325693, -1.275146, 0.380127, 0.075684, 0.122720, -0.086246, -0.074870, 0.999678, -0.003972, 0.024997, 0.001628, -134.283040, -82.282239, -42.017523, , , 0.000000, , , 
30729, , 13.758127, -4.185115, -4.239589, -3.429070, 2.602593, 4.547067, 0.696244, 4.663072, -0.023058, -1.273926, 0.437012, 0.127197, 0.136536, -0.041712, -0.045733, 0.999722, 0.003481, 0.023313, -0.000115, -115.884195, -83.848678, -60.146154, , , 0.000000, , , 
30730, , 15.362437, -0.477621, -2.584912, -2.138276, -1.130194, 5.583028, 0.323574, 4.239607, -0.370765, -1.257324, 0.474121, 0.176758, 0.153021, -0.005015, -0.029105, 0.999772, 0.001618, 0.021196, -0.001854, -91.793259, -84.684270, -84.161931, , , 0.000000, , , 
30731, , 16.485459, 1.226878, -4.225744, -4.310319, -2.981789, 6.423749, -0.788977, 3.979637, -0.649382, -1.237793, 0.458252, 0.239502, 0.164008, 0.011560, -0.045573, 0.999789, -0.003945, 0.019897, -0.003247, -67.322198, -84.635288, -109.190328, , , 0.000000, , , 
30732, , 17.157428, 2.061456, -4.699879, -5.420458, -3.774802, 6.832103, -0.285447, 3.595378, -0.823991, -1.221924, 0.409668, 0.285400, 0.170775, 0.019840, -0.050102, 0.999829, -0.001427, 0.017976, -0.004120, -46.956103, -83.873527, -129.815128, , , 0.000000, , , 
30733, , 18.352382, 3.033291, -4.727872, -6.106453, -4.690956, 7.766564, -0.489594, 3.452312, -0.918846, -1.207764, 0.315186, 0.294678, 0.182807, 0.029371, -0.050511, 0.999837, -0.002448, 0.017261, -0.004594, -32.985209, -82.685350, -144.163381, , , 0.000000, , , 
30734, , 17.842521, 2.826802, -4.045899, -6.047144, -4.246758, 7.160048, -0.580817, 3.547448, -0.877337, -1.173828, 0.205322, 0.230713, 0.177791, 0.027363, -0.043697, 0.999829, -0.002904, 0.017736, -0.004386, -23.176667, -81.076262, -154.399244, , , 0.000000, , , 
30735, , 16.356551, 1.469541, -4.334592, -6.819992, -2.649142, 5.514253, -0.452882, 3.942292, -0.875795, -1.074707, 0.136230, 0.140625, 0.162730, 0.013879, -0.046591, 0.999794, -0.002264, 0.019710, -0.004379, -16.350360, -79.114963, -161.590938, , , 0.000000, , , 
30736, , 14.285046, 2.028352, -2.640761, -5.371863, -2.881419, 3.527419, -0.420833, 4.128427, -0.993972, -0.975830, 0.102295, 0.104248, 0.142363, 0.019515, -0.029391, 0.999772, -0.002104, 0.020641, -0.004969, -11.180425, -76.906350, -167.113250, , , 0.000000, , , 
30737, , 12.898465, 2.431405, -1.608271, -4.602971, -3.046153, 2.202874, -0.853546, 4.208002, -1.084361, -0.919922, 0.066650, 0.089600, 0.128736, 0.023539, -0.018895, 0.999755, -0.004267, 0.021038, -0.005421, -7.693425, -74.626900, -171.214374, , , 0.000000, , , 
30738, , 10.806522, 1.479796, -1.267175, -4.257593, -1.860681, 0.135445, -1.418582, 4.351203, -1.134762, -0.884766, 0.004883, 0.057617, 0.107835, 0.014084, -0.015121, 0.999722, -0.007092, 0.021754, -0.005673, -5.295748, -72.182931, -174.553091, , , 0.000000, , , 
30739, , 9.558831, 0.267380, -0.927246, -3.981651, -0.478337, -1.083156, -1.878957, 4.241436, -1.127943, -0.856201, -0.050293, 0.014893, 0.095375, 0.002036, -0.011318, 0.999715, -0.009394, 0.021205, -0.005639, -3.933998, -69.810536, -177.131530, , , 0.000000, , , 
30740, , 8.197584, -0.619127, -0.884414, -3.791411, 0.555449, -2.486496, -2.119251, 4.049379, -1.023302, -0.825439, -0.101074, -0.017090, 0.081742, -0.006715, -0.010432, 0.999726, -0.010595, 0.020245, -0.005116, -3.213799, -67.496323, -179.195781, , , 0.000000, , , 
30741, , 7.073688, -0.853091, -0.693378, -3.421019, 0.891711, -3.588444, -2.086671, 3.785510, -0.963159, -0.801270, -0.145264, -0.062256, 0.070547, -0.008952, -0.008178, 0.999755, -0.010433, 0.018926, -0.004815, -2.882264, -65.358021, 179.138225, , , 0.000000, , , 
30742, , 6.185703, -0.638004, -0.770182, -3.323334, 0.769282, -4.556942, -2.103950, 3.501703, -0.895673, -0.779297, -0.184814, -0.103027, 0.061681, -0.006745, -0.008713, 0.999781, -0.010519, 0.017507, -0.004478, -2.766212, -63.349088, 177.685216, , , 0.000000, , , 
30743, , 5.646312, -0.109870, -0.658492, -3.177461, 0.305454, -5.108005, -2.132108, 3.151781, -0.834274, -0.755127, -0.224609, -0.139404, 0.056345, -0.001410, -0.007460, 0.999810, -0.010660, 0.015758, -0.004171, -2.901336, -61.567393, 176.459914, , , 0.000000, , , 
30744, , 5.484482, 0.220851, -0.626781, -3.241252, 0.045198, -5.339321, -2.236148, 2.821653, -0.763434, -0.735596, -0.253174, -0.180176, 0.054757, 0.001923, -0.007063, 0.999831, -0.011180, 0.014107, -0.003817, -3.210448, -59.950514, 175.359075, , , 0.000000, , , 
30745, , 5.142102, 0.076513, -1.282914, -3.719502, 0.332547, -6.051598, -2.227707, 2.534001, -0.648960, -0.718018, -0.279541, -0.210205, 0.051255, 0.000451, -0.013485, 0.999852, -0.011138, 0.012669, -0.003245, -3.716118, -58.522072, 174.462153, , , 0.000000, , , 
30746, , 4.546068, 0.002523, -1.803865, -3.908156, 0.528885, -6.920294, -2.097926, 2.259773, -0.514329, -0.698486, -0.303955, -0.248779, 0.045253, -0.000284, -0.018549, 0.999878, -0.010489, 0.011298, -0.002572, -4.273421, -57.230021, 173.714739, , , 0.000000, , , 
30747, , 3.831217, -0.345901, -2.222574, -3.846581, 0.969418, -7.812455, -2.010688, 1.932914, -0.364523, -0.689697, -0.321533, -0.279053, 0.038089, -0.003754, -0.022558, 0.999901, -0.010053, 0.009664, -0.001823, -4.972926, -56.141295, 173.173210, , , 0.000000, , , 
30748, , 3.407787, -0.714539, -2.754251, -3.982499, 1.465047, -8.508000, -1.807809, 1.629777, -0.221711, -0.687500, -0.332520, -0.304932, 0.033844, -0.007433, -0.027753, 0.999925, -0.009039, 0.008149, -0.001109, -5.667765, -55.207783, 172.774275, , , 0.000000, , , 
30749, , 2.918582, -0.778032, -3.061715, -3.929739, 1.610780, -9.134712, -1.592931, 1.387851, -0.097096, -0.678711, -0.345703, -0.328613, 0.028969, -0.008039, -0.030755, 0.999944, -0.007965, 0.006939, -0.000485, -6.383511, -54.421133, 172.533315, , , 0.000000, , , 
30750, , 2.613166, -1.159138, -3.351391, -3.879439, 2.072293, -9.569272, -1.527604, 1.179314, 0.002551, -0.672119, -0.350098, -0.350098, 0.025934, -0.011847, -0.033577, 0.999953, -0.007638, 0.005896, 0.000013, -7.126380, -53.740082, 172.382854, , , 0.000000, , , 
30751, , 2.157411, -1.735770, -3.577544, -3.626009, 2.694192, -10.056075, -1.381210, 0.970060, 0.066114, -0.667969, -0.350098, -0.367432, 0.021406, -0.017598, -0.035759, 0.999964, -0.006906, 0.004850, 0.000331, -7.870393, -53.182375, 172.323918, , , 0.000000, , , 
30752, , 1.634857, -2.096479, -3.302693, -2.983925, 2.972988, -10.295491, -1.279504, 0.716741, 0.102397, -0.659424, -0.347900, -0.380371, 0.016241, -0.021167, -0.032950, 0.999973, -0.006397, 0.003584, 0.000512, -8.583087, -52.763094, 172.309257, , , 0.000000, , , 
30753, , 1.308167, -2.642062, -3.165826, -2.512647, 3.468450, -10.421400, -1.194261, 0.409078, 0.097970, -0.661621, -0.343506, -0.395508, 0.013030, -0.026603, -0.031526, 0.999980, -0.005971, 0.002045, 0.000490, -9.292047, -52.521120, 172.340348, , , 0.000000, , , 
30754, , 0.805154, -3.460779, -2.854945, -1.728523, 4.155117, -10.535878, -1.048555, 0.067314, 0.089425, -0.663818, -0.343506, -0.393311, 0.008057, -0.034753, -0.028370, 0.999986, -0.005243, 0.000337, 0.000447, -9.937284, -52.474216, 172.403805, , , 0.000000, , , 
30755, , 0.490090, -4.320225, -2.543016, -1.045712, 4.881990, -10.478998, -0.798724, -0.350905, 0.069386, -0.661865, -0.334717, -0.395508, 0.004960, -0.043302, -0.025249, 0.999990, -0.003994, -0.001755, 0.000347, -10.492314, -52.663324, 172.526475, , , 0.000000, , , 
30756, , 0.008232, -5.479587, -1.693386, 0.214688, 5.718436, -10.195849, -0.449697, -0.843339, 0.077333, -0.668213, -0.330322, -0.391357, 0.000175, -0.054834, -0.016810, 0.999989, -0.002248, -0.004217, 0.000387, -10.922315, -53.132054, 172.744660, , , 0.000000, , , 
30757, , 0.029030, -5.332064, -0.864365, 0.789190, 5.342300, -9.686717, -0.010953, -1.413527, 0.027565, -0.677002, -0.325928, -0.371826, 0.000359, -0.053321, -0.008638, 0.999975, -0.000055, -0.007068, 0.000138, -11.159026, -53.922233, 173.031236, , , 0.000000, , , 
30758, , 1.003902, -3.431415, -0.344970, 0.092540, 3.446307, -8.804803, 0.342045, -1.971700, -0.042103, -0.687744, -0.319092, -0.348145, 0.010066, -0.034310, -0.003409, 0.999950, 0.001710, -0.009858, -0.000211, -11.245177, -55.037425, 173.373610, , , 0.000000, , , 
30759, , 3.186293, -1.293764, 1.247667, -0.455113, 1.084276, -6.348636, 0.622960, -2.492912, -0.124569, -0.700439, -0.316895, -0.317871, 0.031696, -0.012997, 0.012832, 0.999917, 0.003115, -0.012464, -0.000623, -11.193129, -56.450659, 173.742493, , , 0.000000, , , 
30760, , 5.881516, 0.350156, 4.040169, -0.021026, -1.122735, -2.757681, 0.955801, -2.827050, -0.260551, -0.715576, -0.312500, -0.285645, 0.058240, 0.003230, 0.041244, 0.999888, 0.004779, -0.014135, -0.001303, -10.913866, -58.071700, 174.055455, , , 0.000000, , , 
30761, , 8.401360, 1.382370, 7.709772, 1.631371, -2.963359, 1.163709, 1.204860, -2.788062, -0.391975, -0.730469, -0.305664, -0.250977, 0.082954, 0.013191, 0.078340, 0.999883, 0.006024, -0.013940, -0.001960, -10.345569, -59.681455, 174.198069, , , 0.000000, , , 
30762, , 11.227069, 1.439413, 12.266368, 4.356888, -4.015276, 5.790529, 1.016517, -2.488800, -0.553501, -0.741211, -0.305664, -0.227295, 0.110770, 0.013458, 0.124118, 0.999906, 0.005082, -0.012444, -0.002767, -9.658716, -61.142124, 174.074375, , , 0.000000, , , 
30763, , 16.152909, 0.773493, 17.112430, 6.709997, -4.312737, 12.339117, 0.198352, -2.208802, -0.628322, -0.747559, -0.307861, -0.205811, 0.159649, 0.007061, 0.172902, 0.999934, 0.000992, -0.011044, -0.003142, -9.270620, -62.447956, 173.762991, , , 0.000000, , , 
30764, , 22.069232, -0.640682, 18.436677, 5.960447, -3.057478, 18.160076, -0.971472, -1.751771, -0.615664, -0.753662, -0.314453, -0.199219, 0.219047, -0.006181, 0.186321, 0.999945, -0.004857, -0.008759, -0.003078, -9.466106, -63.489703, 173.357164, , , 0.000000, , , 
30765, , 23.847570, -2.092476, 19.153793, 6.468943, -1.936238, 20.093026, -1.283865, -0.525364, -0.385383, -0.753662, -0.325439, -0.205566, 0.237932, -0.020151, 0.192294, 0.999974, -0.006419, -0.002627, -0.001927, -9.863805, -63.821814, 172.980118, , , 0.000000, , , 
30766, , 17.082530, -2.702315, 17.226364, 7.925973, -1.335445, 13.236278, -1.081890, 0.681175, -0.182267, -0.751465, -0.329834, -0.218506, 0.171387, -0.026249, 0.171824, 0.999979, -0.005409, 0.003406, -0.000911, -10.135944, -63.441970, 172.592865, , , 0.000000, , , 
30767, , 11.472045, -2.323227, 12.417517, 6.063099, -0.721326, 6.122068, -0.788868, 0.850305, -0.101657, -0.736328, -0.343018, -0.233643, 0.115236, -0.022802, 0.123776, 0.999983, -0.003944, 0.004252, -0.000508, -10.302847, -62.971131, 172.273507, , , 0.000000, , , 
30768, , 8.679426, -2.009717, 8.183958, 3.539704, 0.020089, 1.755284, -0.601804, 0.728718, -0.035257, -0.742432, -0.360596, -0.252930, 0.087088, -0.019867, 0.081583, 0.999989, -0.003009, 0.003644, -0.000176, -10.459720, -62.542377, 172.062885, , , 0.000000, , , 
30769, , 7.409077, -1.186451, 5.470408, 1.523376, -0.040608, -0.652734, -0.384340, 0.773214, -0.055609, -0.744385, -0.369141, -0.265869, 0.074298, -0.011780, 0.054440, 0.999991, -0.001922, 0.003866, -0.000278, -10.466350, -62.110770, 171.821734, , , 0.000000, , , 
30770, , 5.892749, 0.622857, 6.253194, 2.245348, -2.090657, -1.762761, -0.323183, 1.317471, -0.033524, -0.737793, -0.380127, -0.293701, 0.059339, 0.006319, 0.062132, 0.999977, -0.001616, 0.006587, -0.000168, -10.360881, -61.347679, 171.492073, , , 0.000000, , , 
30771, , 2.742619, 0.361648, 5.662965, 3.232439, -1.888882, -4.742717, -0.729793, 1.398910, -0.066237, -0.748535, -0.384521, -0.306885, 0.027823, 0.003813, 0.056422, 0.999969, -0.003649, 0.006994, -0.000331, -10.450701, -60.564427, 171.116546, , , 0.000000, , , 
30772, , 5.096992, -2.501739, -1.240995, -2.713402, 3.160918, -5.760034, -0.303221, 0.254954, -0.645852, -0.743896, -0.397705, -0.308838, 0.050873, -0.025201, -0.012437, 0.999993, -0.001516, 0.001275, -0.003229, -9.930199, -60.459025, 170.320465, , , 0.000000, , , 
30773, , 14.409574, -1.280389, 0.411156, -6.195793, 2.337035, 3.055553, 0.498229, -0.740955, -1.117211, -0.743652, -0.413086, -0.310791, 0.144005, -0.013620, 0.004612, 0.999974, 0.002491, -0.003705, -0.005586, -8.639894, -60.979491, 169.168477, , , 0.000000, , , 
30774, , 26.123192, 1.281044, 1.105670, -11.713982, 0.888401, 13.580766, -0.841832, -1.810614, -1.116587, -0.745605, -0.421875, -0.308594, 0.261184, 0.011405, 0.013371, 0.999935, -0.004209, -0.009053, -0.005583, -8.237676, -62.078734, 168.161617, , , 0.000000, , , 
30775, , 38.441573, 1.019948, 0.195047, -17.630409, 2.731821, 24.253819, -0.307472, -0.776956, -0.608804, -0.743652, -0.423828, -0.319336, 0.384433, 0.009034, 0.003429, 0.999987, -0.001537, -0.003885, -0.003044, -7.873994, -62.566551, 167.552035, , , 0.000000, , , 
30776, , 28.703824, 6.000393, 12.297591, -5.073328, -6.727848, 20.848327, -1.012421, 2.111353, 0.141682, -0.735107, -0.421875, -0.354004, 0.288270, 0.060819, 0.119630, 0.999931, -0.005062, 0.010557, 0.000708, -8.284714, -61.353890, 167.360436, , , 0.000000, , , 
30777, , 9.373245, -0.463695, -6.797032, -9.785895, 3.808054, -4.914275, -5.061219, 2.920729, 1.165468, -0.729248, -0.395508, -0.395264, 0.092760, -0.005835, -0.069192, 0.999556, -0.025302, 0.014601, 0.005826, -11.829258, -59.587856, 168.101008, , , 0.000000, , , 
30778, , -7.386358, -14.532308, -33.089409, -16.595326, 25.088269, -31.162303, -0.601047, 1.714926, 1.287419, -0.724854, -0.397705, -0.399658, -0.075753, -0.146799, -0.329810, 0.999938, -0.003005, 0.008574, 0.006437, -13.014310, -58.474012, 169.084350, , , 0.000000, , , 
30779, , -11.963192, -8.203446, -11.775578, -0.092834, 10.790103, -25.064924, 1.477172, -1.498604, -0.265366, -0.729004, -0.402100, -0.373535, -0.118850, -0.080999, -0.119249, 0.999944, 0.007386, -0.007493, -0.001327, -12.232557, -59.343297, 169.159826, , , 0.000000, , , 
30780, , -2.793998, -3.091870, 2.194494, 4.213789, 1.823576, -10.860559, 1.872608, -3.084253, -0.597424, -0.737305, -0.410889, -0.334717, -0.028364, -0.031035, 0.021219, 0.999833, 0.009363, -0.015420, -0.002987, -11.229901, -61.160393, 169.229629, , , 0.000000, , , 
30781, , 6.369230, 5.886122, 6.853391, 0.622373, -7.272223, -1.512141, 2.222756, -2.234122, -0.996158, -0.739258, -0.419678, -0.315186, 0.063206, 0.057774, 0.069888, 0.999863, 0.011113, -0.011170, -0.004981, -9.333572, -62.519963, 168.523371, , , 0.000000, , , 
30782, , 9.062764, 10.691086, -2.336977, -9.562180, -8.428082, -3.534039, 0.098122, -2.237889, -0.617674, -0.743652, -0.415283, -0.293701, 0.091211, 0.106641, -0.022299, 0.999933, 0.000491, -0.011189, -0.003088, -9.015006, -63.855967, 168.221263, , , 0.000000, , , 
30783, , 15.423904, 5.710534, -9.505049, -16.400672, -0.845685, -0.266442, 1.152060, -2.568349, -0.840249, -0.747803, -0.417480, -0.259033, 0.155679, 0.056992, -0.092729, 0.999892, 0.005760, -0.012841, -0.004201, -7.804389, -65.380334, 167.612019, , , 0.000000, , , 
30784, , 21.215061, 8.074971, -0.977098, -11.866588, -5.432882, 8.784918, 2.497172, -2.065771, -0.655588, -0.756348, -0.413086, -0.235352, 0.212493, 0.080149, -0.006574, 0.999863, 0.012485, -0.010328, -0.003278, -5.858267, -66.626643, 167.046070, , , 0.000000, , , 
30785, , 16.778240, 6.748449, 5.592419, -3.607538, -6.618725, 7.550960, 0.464136, -1.550548, -0.320998, -0.756592, -0.406494, -0.215820, 0.167449, 0.067084, 0.057379, 0.999966, 0.002321, -0.007753, -0.001605, -5.364847, -67.527022, 166.799099, , , 0.000000, , , 
30786, , 11.959661, 2.952353, 3.603680, -2.145705, -2.869159, 2.512027, -0.673372, -1.296366, -0.173304, -0.756836, -0.386719, -0.211670, 0.119386, 0.029543, 0.036712, 0.999973, -0.003367, -0.006482, -0.000867, -5.667214, -68.308453, 166.712499, , , 0.000000, , , 
30787, , 8.430307, 1.846207, 1.709175, -2.057468, -1.571409, -1.404601, -0.051593, -1.519512, -0.249672, -0.759277, -0.371338, -0.194580, 0.084193, 0.018361, 0.017727, 0.999970, -0.000258, -0.007597, -0.001248, -5.549391, -69.187189, 166.554377, , , 0.000000, , , 
30788, , 6.101031, 2.019881, 2.464540, -0.508281, -2.180797, -3.304175, 0.274071, -1.939964, -0.366581, -0.763672, -0.364746, -0.186035, 0.060804, 0.020053, 0.025263, 0.999950, 0.001370, -0.009700, -0.001833, -5.078732, -70.346777, 166.225062, , , 0.000000, , , 
30789, , 4.868431, 0.240790, 1.893968, 0.080728, -0.430648, -4.601791, 0.189692, -2.330385, -0.482703, -0.772217, -0.353760, -0.164307, 0.048465, 0.002272, 0.019507, 0.999929, 0.000948, -0.011652, -0.002413, -4.492442, -71.698783, 165.720061, , , 0.000000, , , 
30790, , 4.662886, -1.355478, 0.853804, -0.152783, 1.382004, -5.082561, 0.869963, -2.820986, -0.739301, -0.774658, -0.344971, -0.147217, 0.046452, -0.013766, 0.009135, 0.999884, 0.004350, -0.014104, -0.003696, -2.948156, -73.371503, 164.629177, , , 0.000000, , , 
30791, , 7.051289, -1.005391, 1.189212, -0.431638, 1.136134, -2.694834, 1.721043, -3.325877, -0.936827, -0.787354, -0.338379, -0.121338, 0.070255, -0.010492, 0.012973, 0.999814, 0.008605, -0.016628, -0.004684, -0.238047, -75.289900, 162.838988, , , 0.000000, , , 
30792, , 8.333724, 1.193760, 0.352609, -1.895362, -0.620958, -1.626472, 2.079722, -3.346875, -0.890704, -0.796143, -0.333984, -0.099854, 0.083313, 0.011519, 0.005042, 0.999796, 0.010398, -0.016733, -0.004453, 3.296152, -77.225117, 160.432233, , , 0.000000, , , 
30793, , 9.337115, 3.559713, -0.145503, -2.914859, -2.698655, -0.642907, 0.959266, -3.346505, -0.714202, -0.808838, -0.329346, -0.082520, 0.093502, 0.035265, 0.000279, 0.999842, 0.004796, -0.016732, -0.003571, 6.577608, -79.099225, 157.641501, , , 0.000000, , , 
30794, , 10.235432, 1.061518, -1.821337, -3.640453, 0.180283, -0.019154, 0.121168, -3.189901, -0.485229, -0.817627, -0.322754, -0.071777, 0.102653, 0.010377, -0.016571, 0.999870, 0.000606, -0.015949, -0.002426, 9.777073, -80.900672, 154.468677, , , 0.000000, , , 
30795, , 9.932109, 0.835648, -0.086026, -1.585323, -0.122427, 0.026886, 0.304552, -2.875638, -0.406274, -0.830322, -0.326904, -0.069580, 0.099336, 0.008155, 0.000580, 0.999893, 0.001523, -0.014378, -0.002031, 13.812522, -82.465403, 150.567111, , , 0.000000, , , 
30796, , 9.707997, 0.440487, 0.577868, -0.544152, 0.030176, -0.093078, 0.025797, -2.585100, -0.321827, -0.843018, -0.326904, -0.061035, 0.097001, 0.004248, 0.007033, 0.999915, 0.000129, -0.012925, -0.001609, 18.974377, -83.866019, 145.388496, , , 0.000000, , , 
30797, , 8.979755, 0.008462, 0.672096, -0.039594, 0.340233, -0.814552, 0.212216, -2.418846, -0.258456, -0.853516, -0.335449, -0.061035, 0.089708, -0.000039, 0.007806, 0.999925, 0.001061, -0.012094, -0.001292, 25.992274, -85.090903, 138.460542, , , 0.000000, , , 
30798, , 8.863869, -0.327290, 0.650033, 0.254157, 0.627604, -0.945011, 0.372318, -2.360435, -0.211549, -0.859863, -0.344238, -0.047852, 0.088550, -0.003380, 0.007540, 0.999928, 0.001862, -0.011802, -0.001058, 37.273447, -86.207512, 127.365777, , , 0.000000, , , 
30799, , 8.871578, -1.762533, 0.218935, 0.417550, 2.086766, -1.019093, 0.552428, -2.279673, -0.121771, -0.872314, -0.359375, -0.041504, 0.088673, -0.017687, 0.003151, 0.999931, 0.002762, -0.011398, -0.000609, 54.433849, -87.075658, 110.493844, , , 0.000000, , , 
30800, , 8.482646, -3.219830, -0.292604, 0.493114, 3.571027, -1.481396, 0.844542, -2.319401, -0.166143, -0.874268, -0.372559, -0.026123, 0.084827, -0.032259, -0.002078, 0.999923, 0.004223, -0.011597, -0.000831, 82.723461, -87.488024, 82.661684, , , 0.000000, , , 
30801, , 8.975676, -3.873838, 0.087987, 1.203860, 4.098257, -1.018981, 1.309186, -2.620891, -0.184237, -0.876221, -0.385742, -0.006592, 0.089701, -0.038831, 0.001802, 0.999892, 0.006546, -0.013104, -0.000921, 115.110053, -87.137946, 50.992331, , , 0.000000, , , 
30802, , 10.072868, -4.093198, -0.120691, 1.283829, 4.373000, 0.059336, 1.524724, -2.591573, -0.171067, -0.880127, -0.401123, 0.010742, 0.100701, -0.041014, -0.000214, 0.999887, 0.007623, -0.012957, -0.000855, 136.133742, -86.154983, 30.811391, , , 0.000000, , , 
30803, , 9.677041, -4.485498, -0.269341, 1.379507, 4.747138, -0.357690, 1.727780, -2.411846, -0.153412, -0.882080, -0.418701, 0.032471, 0.096762, -0.044910, -0.001914, 0.999890, 0.008639, -0.012059, -0.000767, 147.317469, -85.012141, 20.587988, , , 0.000000, , , 
30804, , 9.420145, -3.719530, -0.335860, 1.288289, 3.981679, -0.583839, 2.164237, -2.387336, -0.177811, -0.881836, -0.434082, 0.054199, 0.094203, -0.037248, -0.002637, 0.999870, 0.010821, -0.011936, -0.000889, 154.574702, -83.737457, 14.543434, , , 0.000000, , , 
30805, , 9.262203, -2.110171, -0.074165, 1.380814, 2.329460, -0.707119, 2.417846, -2.343430, -0.149768, -0.881348, -0.447510, 0.082275, 0.092608, -0.021169, 0.000088, 0.999858, 0.012089, -0.011717, -0.000749, 159.623136, -82.467677, 10.853951, , , 0.000000, , , 
30806, , 9.149600, -0.802499, -0.386761, 1.029505, 1.064875, -0.740100, 2.616694, -2.330390, -0.118927, -0.874756, -0.458496, 0.114746, 0.091529, -0.008037, -0.002906, 0.999846, 0.013083, -0.011651, -0.000595, 163.701849, -81.151192, 8.249187, , , 0.000000, , , 
30807, , 9.270960, 0.714466, -0.600162, 0.844253, -0.437090, -0.543775, 2.830541, -2.367818, -0.097874, -0.868164, -0.467529, 0.156006, 0.092775, 0.007173, -0.004802, 0.999830, 0.014152, -0.011838, -0.000489, 167.043257, -79.825322, 6.505808, , , 0.000000, , , 
30808, , 9.893107, 1.974421, -0.963479, 0.729440, -1.679835, 0.154204, 2.659655, -2.453296, -0.068471, -0.861816, -0.471924, 0.190674, 0.099044, 0.019825, -0.008157, 0.999836, 0.013298, -0.012266, -0.000342, 169.901805, -78.413440, 5.148191, , , 0.000000, , , 
30809, , 9.409848, 2.239300, -2.267156, -0.376565, -1.896062, -0.068154, 2.345657, -2.402189, -0.044584, -0.855225, -0.476562, 0.225342, 0.094365, 0.022627, -0.021275, 0.999859, 0.011728, -0.012010, -0.000223, 172.118376, -77.051047, 4.255343, , , 0.000000, , , 
30810, , 8.234759, 1.231373, -3.235293, -1.262983, -0.922127, -1.018126, 2.302403, -2.322227, -0.075742, -0.846680, -0.479004, 0.255615, 0.082719, 0.012646, -0.031250, 0.999866, 0.011511, -0.011611, -0.000379, 173.971057, -75.698563, 3.708247, , , 0.000000, , , 
30811, , 9.009020, 1.271563, -1.706842, 0.632875, -1.075352, -0.640375, 2.355397, -2.152022, -0.047356, -0.835938, -0.481201, 0.285889, 0.090269, 0.012886, -0.015947, 0.999873, 0.011776, -0.010760, -0.000237, 175.638235, -74.469187, 3.379628, , , 0.000000, , , 
30812, , 9.571795, 1.790511, 0.888858, 3.488705, -1.654116, -0.829111, 1.698436, -1.799880, 0.059680, -0.827148, -0.488037, 0.311768, 0.095627, 0.017852, 0.009901, 0.999923, 0.008492, -0.008999, 0.000298, 176.994163, -73.415811, 2.983414, , , 0.000000, , , 
30813, , 10.876949, 1.655373, 1.155983, 4.300398, -1.498173, 0.269153, 1.081247, -1.605271, 0.143615, -0.829346, -0.481445, 0.329102, 0.108660, 0.016566, 0.012522, 0.999953, 0.005406, -0.008026, 0.000718, 178.012659, -72.501474, 2.566151, , , 0.000000, , , 
30814, , 13.052723, 1.976236, 1.381860, 5.364648, -1.795619, 2.194855, 0.969995, -1.487095, 0.196980, -0.816650, -0.477295, 0.344238, 0.130400, 0.019820, 0.014885, 0.999960, 0.004850, -0.007435, 0.000985, 179.008629, -71.630415, 2.105376, , , 0.000000, , , 
30815, , 14.400875, 2.247852, 0.941387, 5.566445, -2.074250, 3.530214, 0.951962, -1.237759, 0.230862, -0.810059, -0.483887, 0.363770, 0.143920, 0.022597, 0.010412, 0.999969, 0.004760, -0.006189, 0.001154, 179.963265, -70.923361, 1.673345, , , 0.000000, , , 
30816, , 13.975574, 1.705872, -0.238128, 4.475380, -1.590970, 3.443278, 1.211807, -1.087140, 0.186345, -0.808105, -0.470947, 0.376465, 0.139750, 0.017200, -0.001518, 0.999966, 0.006059, -0.005436, 0.000932, -179.039427, -70.283114, 1.353565, , , 0.000000, , , 
30817, , 14.161463, 1.472226, -0.079773, 4.839752, -1.368386, 3.507324, 1.374340, -1.062769, 0.144752, -0.808105, -0.466553, 0.389404, 0.141605, 0.014826, 0.000056, 0.999962, 0.006872, -0.005314, 0.000724, -178.066416, -69.673178, 1.156086, , , 0.000000, , , 
30818, , 14.521917, 1.099623, 1.175681, 6.267580, -0.935790, 3.352326, 1.172496, -0.872097, 0.159608, -0.808350, -0.459961, 0.400146, 0.145157, 0.011040, 0.012454, 0.999973, 0.005862, -0.004360, 0.000798, -177.197956, -69.158485, 0.947045, , , 0.000000, , , 
30819, , 14.284092, 1.162926, 2.457339, 7.486630, -0.914668, 2.618691, 0.934640, -0.591175, 0.151779, -0.806152, -0.457764, 0.406738, 0.142759, 0.011621, 0.025050, 0.999984, 0.004673, -0.002956, 0.000759, -176.484688, -68.816347, 0.756645, , , 0.000000, , , 
30820, , 14.833600, 2.192000, 3.218376, 8.534048, -1.872729, 2.791322, 0.709900, -0.315473, 0.104092, -0.812744, -0.455566, 0.408936, 0.148274, 0.021882, 0.032495, 0.999992, 0.003549, -0.001577, 0.000520, -175.950669, -68.627314, 0.620596, , , 0.000000, , , 
30821, , 16.835807, 3.239937, 3.414210, 9.561696, -2.883969, 4.534963, 0.575092, -0.026046, 0.086213, -0.827637, -0.457520, 0.406738, 0.168340, 0.032374, 0.034257, 0.999996, 0.002875, -0.000130, 0.000431, -175.497865, -68.609593, 0.488200, , , 0.000000, , , 
30822, , 18.880147, 3.837427, 3.441839, 10.375457, -3.472705, 6.414517, 0.538559, 0.292595, 0.144494, -0.838379, -0.446533, 0.402344, 0.188824, 0.038418, 0.034246, 0.999995, 0.002693, 0.001463, 0.000722, -174.943339, -68.773894, 0.223967, , , 0.000000, , , 
30823, , 18.072562, 3.128265, 3.403165, 9.919956, -2.789543, 5.737128, 0.481660, 0.742245, 0.166423, -0.868408, -0.441650, 0.389160, 0.180824, 0.031352, 0.033436, 0.999990, 0.002408, 0.003711, 0.000832, -174.316322, -69.189227, -0.152078, , , 0.000000, , , 
30824, , 16.838394, 1.886553, 4.280610, 10.054191, -1.487142, 4.403953, 0.460218, 1.142190, 0.102238, -0.898438, -0.430420, 0.375977, 0.168615, 0.018855, 0.041887, 0.999981, 0.002301, 0.005711, 0.000511, -173.723484, -69.847903, -0.504426, , , 0.000000, , , 
30825, , 16.164293, 1.568034, 5.256324, 10.510457, -1.101530, 3.591853, 0.078859, 1.742255, 0.144712, -0.941406, -0.414307, 0.352051, 0.162081, 0.015777, 0.051159, 0.999962, 0.000394, 0.008711, 0.000724, -173.127369, -70.830965, -1.089421, , , 0.000000, , , 
30826, , 16.013611, 1.354752, 3.604211, 8.590478, -1.133519, 4.193213, -0.426933, 2.523293, 0.318497, -1.010254, -0.385010, 0.338867, 0.160552, 0.013877, 0.033989, 0.999917, -0.002135, 0.012616, 0.001592, -172.291430, -72.265570, -2.229693, , , 0.000000, , , 
30827, , 15.815457, 0.027111, 1.319061, 5.814227, -0.161287, 4.952525, -0.363246, 3.506205, 0.583276, -1.115723, -0.342041, 0.327393, 0.158352, 0.000753, 0.010415, 0.999840, -0.001816, 0.017530, 0.002916, -170.398461, -74.202558, -4.423735, , , 0.000000, , , 
30828, , 14.764820, -1.648948, 0.437346, 3.981475, 1.282712, 4.448345, -0.259474, 4.376466, 0.818734, -1.235840, -0.303467, 0.322510, 0.147763, -0.015882, 0.001162, 0.999751, -0.001297, 0.021881, 0.004093, -166.890717, -76.600251, -8.201872, , , 0.000000, , , 
30829, , 13.521756, -4.276292, -0.294472, 2.172336, 3.692704, 3.708433, -0.931595, 5.023757, 0.955214, -1.400635, -0.275146, 0.298340, 0.135292, -0.042140, -0.006145, 0.999662, -0.004657, 0.025116, 0.004776, -161.275544, -79.223008, -14.488430, , , 0.000000, , , 
30830, , 12.000119, -6.216105, -3.335879, -1.796180, 5.315781, 2.925558, -1.249927, 5.007693, 0.967362, -1.514648, -0.238525, 0.219971, 0.119422, -0.061802, -0.035967, 0.999655, -0.006249, 0.025036, 0.004836, -152.157945, -81.679958, -24.457174, , , 0.000000, , , 
30831, , 13.232052, -4.741447, -3.493825, -2.258988, 3.683539, 4.010339, -1.008268, 4.595388, 0.499648, -1.469238, -0.140137, 0.148193, 0.131593, -0.047271, -0.037729, 0.999720, -0.005041, 0.022975, 0.002498, -139.284859, -83.709286, -38.014994, , , 0.000000, , , 
30832, , 15.257123, -2.549516, -5.466354, -4.583735, 1.243646, 5.889601, -0.946781, 4.512179, 0.171670, -1.325684, -0.045166, 0.095947, 0.151310, -0.025634, -0.057966, 0.999734, -0.004733, 0.022559, 0.000858, -117.805988, -85.290852, -60.133550, , , 0.000000, , , 
30833, , 15.015371, -1.782661, -5.973205, -5.726352, 0.491896, 5.394152, -0.261916, 4.170271, -0.016252, -1.175537, 0.030029, 0.097900, 0.148864, -0.017920, -0.062822, 0.999782, -0.001309, 0.020850, -0.000081, -87.536196, -85.843657, -90.640097, , , 0.000000, , , 
30834, , 15.964110, 0.346468, -4.428138, -4.726851, -1.636242, 5.983828, 0.455497, 3.687001, -0.260512, -1.052246, 0.070312, 0.123779, 0.158793, 0.003363, -0.047206, 0.999827, 0.002277, 0.018434, -0.001302, -59.774702, -85.370327, -118.218511, , , 0.000000, , , 
30835, , 17.109957, 2.709500, -3.454513, -4.286484, -4.010109, 6.846923, 0.641364, 3.424600, -0.482533, -0.968994, 0.069092, 0.180176, 0.170541, 0.026800, -0.037382, 0.999845, 0.003207, 0.017122, -0.002413, -40.652203, -84.312130, -137.047612, , , 0.000000, , , 
30836, , 17.946573, 5.002166, -3.487940, -4.879074, -6.280601, 7.391432, 0.136595, 3.496915, -0.664473, -0.921143, 0.026855, 0.199951, 0.178985, 0.049452, -0.037978, 0.999841, 0.000683, 0.017484, -0.003322, -27.636678, -82.843305, -150.071177, , , 0.000000, , , 
30837, , 16.935708, 5.532568, -3.472364, -5.371172, -6.636466, 6.204561, -0.636154, 3.782782, -0.696817, -0.883789, -0.037354, 0.191895, 0.168849, 0.054619, -0.038095, 0.999810, -0.003181, 0.018913, -0.003484, -19.321050, -81.008002, -158.836783, , , 0.000000, , , 
30838, , 14.721933, 4.410021, -2.581851, -4.843127, -5.241781, 4.039535, -0.837637, 3.923978, -0.760524, -0.868164, -0.090088, 0.164307, 0.146839, 0.043425, -0.028885, 0.999792, -0.004188, 0.019619, -0.003802, -13.749774, -78.961687, -164.977784, , , 0.000000, , , 
30839, , 13.656776, 3.947279, -1.410913, -4.083941, -4.585712, 3.084747, -0.620724, 3.969203, -0.848951, -0.852295, -0.142822, 0.119141, 0.136416, 0.038844, -0.016939, 0.999789, -0.003103, 0.019845, -0.004244, -9.724945, -76.831216, -169.457016, , , 0.000000, , , 
30840, , 12.387330, 4.561777, -0.332811, -3.281250, -5.022649, 1.949438, -0.703271, 4.095394, -0.866517, -0.836670, -0.186768, 0.074219, 0.123964, 0.045063, -0.006025, 0.999775, -0.003516, 0.020475, -0.004332, -6.826498, -74.570922, -172.857878, , , 0.000000, , , 
30841, , 10.271125, 3.639686, 0.510608, -2.425930, -3.940938, 0.064927, -1.764505, 4.149014, -0.777847, -0.816895, -0.219727, 0.026855, 0.102924, 0.036027, 0.002653, 0.999738, -0.008822, 0.020743, -0.003889, -5.493112, -72.253559, -175.303663, , , 0.000000, , , 
30842, , 8.167469, -0.201124, -0.872077, -3.451989, 0.057379, -2.357464, -2.635862, 3.868187, -0.661237, -0.803711, -0.250488, -0.024658, 0.081479, -0.002409, -0.010268, 0.999721, -0.013178, 0.019339, -0.003306, -5.244219, -70.075433, -177.153562, , , 0.000000, , , 
30843, , 7.132100, -2.448268, -1.093889, -3.445192, 2.414362, -3.460110, -1.914210, 3.351629, -0.697334, -0.786377, -0.270508, -0.061279, 0.071041, -0.024842, -0.011894, 0.999808, -0.009570, 0.016757, -0.003486, -4.853155, -68.196326, -178.745662, , , 0.000000, , , 
30844, , 6.958830, -0.657902, -0.605627, -3.198123, 0.679078, -3.605290, -1.909125, 3.181383, -0.742434, -0.779541, -0.296631, -0.104248, 0.069456, -0.006901, -0.007097, 0.999821, -0.009545, 0.015906, -0.003712, -4.542777, -66.410038, 179.741144, , , 0.000000, , , 
30845, , 5.641610, -1.051304, -2.110859, -4.153005, 1.284299, -5.512810, -2.434481, 3.077444, -0.654462, -0.764404, -0.312256, -0.143066, 0.056048, -0.010960, -0.021841, 0.999802, -0.012172, 0.015386, -0.003272, -4.799873, -64.681893, 178.491311, , , 0.000000, , , 
30846, , 5.225389, -1.094471, -3.051979, -4.892780, 1.530649, -6.416778, -2.151076, 2.776046, -0.645808, -0.751465, -0.323242, -0.179688, 0.051788, -0.011445, -0.031119, 0.999841, -0.010755, 0.013879, -0.003229, -4.975970, -63.127146, 177.324101, , , 0.000000, , , 
30847, , 4.826927, -0.565774, -2.383504, -4.244526, 1.010664, -6.609374, -1.870915, 2.481596, -0.575505, -0.736328, -0.336426, -0.211914, 0.047952, -0.006022, -0.024376, 0.999875, -0.009354, 0.012407, -0.002877, -5.177557, -61.738784, 176.342306, , , 0.000000, , , 
30848, , 4.488159, -0.576460, -2.374982, -4.124485, 1.089215, -6.998898, -1.639929, 2.198902, -0.517245, -0.729736, -0.345215, -0.237793, 0.044602, -0.006077, -0.024192, 0.999903, -0.008199, 0.010994, -0.002586, -5.349876, -60.513768, 175.475161, , , 0.000000, , , 
30849, , 3.807563, -0.492812, -2.392583, -3.851711, 1.049349, -7.684954, -1.428759, 1.955871, -0.433149, -0.725586, -0.351807, -0.261475, 0.037828, -0.005183, -0.024260, 0.999924, -0.007144, 0.009779, -0.002166, -5.556679, -59.420548, 174.768500, , , 0.000000, , , 
30850, , 3.505913, -0.322119, -2.581353, -3.907319, 0.956404, -8.116769, -1.316552, 1.666631, -0.337796, -0.710449, -0.358643, -0.285156, 0.034837, -0.003451, -0.026082, 0.999942, -0.006583, 0.008333, -0.001689, -5.814006, -58.495258, 174.197496, , , 0.000000, , , 
30851, , 3.012126, -0.405882, -2.775535, -3.804961, 1.098485, -8.691778, -1.300776, 1.418594, -0.221526, -0.706055, -0.363037, -0.311035, 0.029919, -0.004273, -0.027941, 0.999953, -0.006504, 0.007093, -0.001108, -6.219378, -57.699026, 173.797128, , , 0.000000, , , 
30852, , 2.596629, -0.639939, -2.984955, -3.705859, 1.390837, -9.185116, -1.346100, 1.147069, -0.129858, -0.699707, -0.365234, -0.322021, 0.025790, -0.006618, -0.029954, 0.999961, -0.006730, 0.005735, -0.000649, -6.741247, -57.063463, 173.510007, , , 0.000000, , , 
30853, , 2.036178, -1.037550, -3.265966, -3.531771, 1.848081, -9.812596, -1.381187, 0.869727, -0.069693, -0.695557, -0.363037, -0.332764, 0.020216, -0.010608, -0.032675, 0.999967, -0.006906, 0.004349, -0.000348, -7.378005, -56.572640, 173.325319, , , 0.000000, , , 
30854, , 1.642478, -1.347042, -3.342773, -3.283571, 2.184536, -10.176173, -1.412039, 0.575481, -0.047298, -0.693359, -0.363037, -0.341309, 0.016325, -0.013710, -0.033379, 0.999971, -0.007060, 0.002877, -0.000236, -8.064280, -56.261790, 173.186170, , , 0.000000, , , 
30855, , 1.300815, -1.761591, -3.396560, -3.008842, 2.619691, -10.457485, -1.490597, 0.288807, -0.022033, -0.693359, -0.358643, -0.352295, 0.012957, -0.017870, -0.033852, 0.999971, -0.007453, 0.001444, -0.000110, -8.862925, -56.098814, 173.119527, , , 0.000000, , , 
30856, , 0.871454, -2.918818, -3.304764, -2.372757, 3.725362, -10.644383, -1.529548, -0.024346, 0.008989, -0.693604, -0.347656, -0.358887, 0.008720, -0.029439, -0.032822, 0.999971, -0.007648, -0.000122, 0.000045, -9.737950, -56.126833, 173.124512, , , 0.000000, , , 
30857, , 0.952637, -3.780604, -3.109749, -1.994589, 4.538901, -10.351788, -1.301359, -0.421168, -0.010574, -0.697998, -0.347656, -0.356689, 0.009589, -0.038008, -0.030830, 0.999977, -0.006507, -0.002106, -0.000053, -10.537727, -56.364321, 173.189692, , , 0.000000, , , 
30858, , 1.685290, -3.725767, -2.801283, -2.128831, 4.467494, -9.533384, -0.904437, -0.850528, -0.042964, -0.697998, -0.343262, -0.356689, 0.016963, -0.037387, -0.027772, 0.999981, -0.004522, -0.004253, -0.000215, -11.152155, -56.864808, 173.308308, , , 0.000000, , , 
30859, , 2.788538, -3.127137, -1.466895, -1.801162, 3.585381, -7.913387, -0.434327, -1.258930, -0.065002, -0.710938, -0.338623, -0.343750, 0.027967, -0.031312, -0.014425, 0.999978, -0.002172, -0.006295, -0.000325, -11.564381, -57.578252, 173.502666, , , 0.000000, , , 
30860, , 3.801112, -2.246453, 0.414586, -1.037648, 2.245356, -6.131897, 0.000264, -1.636245, -0.109108, -0.715088, -0.334229, -0.324219, 0.037963, -0.022485, 0.004457, 0.999966, 0.000001, -0.008181, -0.000546, -11.770013, -58.528157, 173.745501, , , 0.000000, , , 
30861, , 5.513296, -1.325196, 2.489145, -0.421067, 0.844383, -3.692478, 0.584934, -1.989395, -0.261186, -0.719482, -0.332031, -0.304932, 0.054865, -0.013398, 0.025399, 0.999945, 0.002925, -0.009947, -0.001306, -11.574734, -59.673664, 173.908553, , , 0.000000, , , 
30862, , 7.652740, -0.463838, 5.009052, 0.493753, -0.575091, -0.686232, 1.253381, -2.015812, -0.406597, -0.728027, -0.334229, -0.283203, 0.076008, -0.005110, 0.050827, 0.999928, 0.006267, -0.010079, -0.002033, -10.852360, -60.871484, 173.902979, , , 0.000000, , , 
30863, , 9.192759, -0.101208, 8.735520, 2.985452, -1.798659, 2.380392, 1.627546, -1.806546, -0.422654, -0.729980, -0.332031, -0.255127, 0.091130, -0.001921, 0.088168, 0.999924, 0.008138, -0.009033, -0.002113, -9.822967, -61.932199, 173.792723, , , 0.000000, , , 
30864, , 11.183528, -0.017358, 13.535368, 6.378289, -2.916714, 6.283221, 1.222869, -1.589060, -0.280756, -0.736328, -0.336426, -0.238037, 0.110754, -0.001161, 0.136231, 0.999949, 0.006114, -0.007945, -0.001404, -9.106128, -62.874330, 173.774476, , , 0.000000, , , 
30865, , 13.942729, -0.441878, 17.620891, 9.007907, -3.366935, 10.499997, -0.113344, -1.282961, -0.090668, -0.742676, -0.334229, -0.227051, 0.138291, -0.004381, 0.177101, 0.999979, -0.000567, -0.006415, -0.000453, -9.301984, -63.607287, 173.921137, , , 0.000000, , , 
30866, , 16.220769, -0.780143, 17.920979, 8.557755, -3.176631, 12.582580, -1.247773, -0.986364, 0.024669, -0.742676, -0.334229, -0.227051, 0.161322, -0.006660, 0.180051, 0.999968, -0.006239, -0.004932, 0.000123, -10.237850, -64.172122, 174.168398, , , 0.000000, , , 
30867, , 16.870688, -1.765561, 16.107663, 7.090054, -1.978708, 12.391001, -1.395589, -0.565284, 0.014524, -0.744873, -0.336426, -0.222900, 0.168252, -0.016517, 0.161671, 0.999972, -0.006978, -0.002826, 0.000073, -11.179048, -64.487876, 174.325532, , , 0.000000, , , 
30868, , 15.314059, -2.420458, 13.233908, 5.506806, -0.779748, 9.798070, -0.697405, -0.101932, -0.096914, -0.740479, -0.343018, -0.224854, 0.153061, -0.023817, 0.132501, 0.999994, -0.003487, -0.000510, -0.000485, -11.481961, -64.559113, 174.220455, , , 0.000000, , , 
30869, , 12.774751, -1.446836, 10.034586, 3.555015, -0.946112, 6.075897, -0.401909, 0.284673, -0.207294, -0.744629, -0.351807, -0.235596, 0.127875, -0.014399, 0.100193, 0.999996, -0.002010, 0.001423, -0.001036, -11.399796, -64.421878, 173.874314, , , 0.000000, , , 
30870, , 10.737536, -1.263974, 7.075109, 1.781633, -0.355858, 2.979818, -0.649425, 0.608180, -0.224745, -0.742432, -0.364990, -0.248535, 0.107576, -0.012531, 0.070465, 0.999989, -0.003247, 0.003041, -0.001124, -11.360341, -64.104632, 173.419531, , , 0.000000, , , 
30871, , 9.862023, -0.550025, 4.851719, -0.020029, -0.404933, 1.184411, -0.424692, 0.833786, -0.290113, -0.735596, -0.382568, -0.257080, 0.098813, -0.005541, 0.048117, 0.999988, -0.002123, 0.004169, -0.001451, -11.080750, -63.667449, 172.837214, , , 0.000000, , , 
30872, , 10.862678, -0.563731, 5.794710, 0.245518, -0.574576, 2.495947, -0.310540, 1.034412, -0.346318, -0.729248, -0.384766, -0.265625, 0.108915, -0.005736, 0.057393, 0.999984, -0.001553, 0.005172, -0.001732, -10.639500, -63.120865, 172.146953, , , 0.000000, , , 
30873, , 12.758412, -3.847359, 4.127567, -1.129484, 3.231020, 3.711362, -0.553495, 0.929270, -0.468796, -0.729004, -0.393555, -0.285156, 0.127684, -0.038659, 0.040789, 0.999983, -0.002767, 0.004646, -0.002344, -10.251676, -62.645009, 171.354997, , , 0.000000, , , 
30874, , 19.258466, -5.278920, -2.594804, -9.299772, 7.204890, 6.530220, -0.193069, 0.221835, -0.664521, -0.722412, -0.404541, -0.282715, 0.192379, -0.053454, -0.026110, 0.999993, -0.000965, 0.001109, -0.003323, -9.591465, -62.584005, 170.488324, , , 0.000000, , , 
30875, , 22.171034, 0.263133, 2.820768, -7.773606, 0.582639, 11.135155, -0.113804, -0.121085, -0.213244, -0.726807, -0.406738, -0.284912, 0.221696, 0.002411, 0.028340, 0.999999, -0.000569, -0.000605, -0.001066, -9.445483, -62.671691, 170.250564, , , 0.000000, , , 
30876, , 18.917586, 0.984646, -2.456636, -10.923579, 1.326193, 5.801281, -1.620042, 0.097526, -0.031227, -0.722412, -0.408936, -0.295654, 0.189165, 0.009617, -0.024737, 0.999967, -0.008100, 0.000488, -0.000156, -10.320773, -62.626148, 170.191033, , , 0.000000, , , 
30877, , 12.166206, -4.872425, -7.500695, -10.211464, 7.983548, -2.066454, 0.233782, 1.095066, 0.242391, -0.713867, -0.411133, -0.300049, 0.121308, -0.048489, -0.075729, 0.999984, 0.001169, 0.005475, 0.001212, -10.233291, -61.983089, 170.243564, , , 0.000000, , , 
30878, , 5.764196, -3.533721, -1.542434, -2.820446, 4.299996, -5.160040, -0.291289, 1.030011, -0.067257, -0.709717, -0.411133, -0.308594, 0.057550, -0.035379, -0.015669, 0.999986, -0.001456, 0.005150, -0.000336, -10.140211, -61.425039, 169.946777, , , 0.000000, , , 
30879, , 3.199103, -3.651135, -7.552105, -6.478455, 6.200866, -10.233259, -1.457432, -0.071499, -0.123512, -0.709473, -0.411133, -0.306396, 0.031995, -0.037080, -0.075241, 0.999973, -0.007287, -0.000357, -0.000618, -10.860505, -61.477329, 169.816192, , , 0.000000, , , 
30880, , 2.884712, -0.937930, -4.092317, -4.363550, 2.521849, -9.072823, -0.936289, -1.421906, -0.307929, -0.711670, -0.411133, -0.291260, 0.029122, -0.009615, -0.040672, 0.999963, -0.004681, -0.007109, -0.001540, -11.378682, -62.331219, 169.791313, , , 0.000000, , , 
30881, , 4.485646, -1.274547, -9.227363, -9.187689, 4.740492, -9.824338, 0.849262, -2.107072, -0.618205, -0.711670, -0.415771, -0.254639, 0.045787, -0.012495, -0.091848, 0.999931, 0.004246, -0.010535, -0.003091, -10.662481, -63.583085, 169.533604, , , 0.000000, , , 
30882, , 7.305428, 4.489467, -5.227729, -8.995137, -1.923549, -5.784091, 3.139514, -2.436668, -0.778393, -0.711426, -0.420166, -0.224365, 0.073854, 0.045412, -0.050671, 0.999795, 0.015696, -0.012183, -0.003892, -8.447283, -65.060262, 169.066792, , , 0.000000, , , 
30883, , 11.711736, 8.594490, -1.778500, -8.925320, -6.691161, -0.339399, 1.800788, -2.461437, -0.423222, -0.711426, -0.415771, -0.187500, 0.117500, 0.085843, -0.015567, 0.999881, 0.009004, -0.012307, -0.002116, -7.310765, -66.489667, 168.952048, , , 0.000000, , , 
30884, , 12.921813, 4.975955, -4.168090, -10.078513, -2.532835, 0.242500, 0.225476, -2.164710, -0.176432, -0.711914, -0.396240, -0.164062, 0.129703, 0.049691, -0.040223, 0.999940, 0.001127, -0.010823, -0.000882, -7.323545, -67.765612, 169.105133, , , 0.000000, , , 
30885, , 12.910246, 3.874912, -0.678169, -6.446608, -2.594414, 1.756804, 0.370763, -2.036296, -0.148300, -0.711914, -0.383057, -0.133789, 0.129191, 0.038664, -0.005395, 0.999946, 0.001854, -0.010181, -0.000741, -7.271613, -68.932930, 169.277858, , , 0.000000, , , 
30886, , 12.483829, 3.510231, 2.412986, -3.202638, -3.253148, 2.562509, -0.003532, -1.901550, -0.163085, -0.714600, -0.354492, -0.118896, 0.124630, 0.035001, 0.025315, 0.999954, -0.000018, -0.009508, -0.000815, -7.394372, -70.064332, 169.407987, , , 0.000000, , , 
30887, , 10.727372, 2.337918, 2.592414, -1.886524, -2.351046, 1.058058, 0.032805, -1.850051, -0.126662, -0.715088, -0.325928, -0.097412, 0.107043, 0.023307, 0.026919, 0.999957, 0.000164, -0.009250, -0.000633, -7.562394, -71.124109, 169.606092, , , 0.000000, , , 
30888, , 8.692078, 1.647301, 2.595968, -0.835431, -1.858995, -0.821115, 0.209745, -1.940085, -0.079716, -0.715576, -0.295410, -0.086914, 0.086670, 0.016411, 0.026818, 0.999952, 0.001049, -0.009700, -0.000399, -7.741849, -72.271883, 169.924296, , , 0.000000, , , 
30889, , 6.855527, -0.320284, 1.788770, -0.264645, 0.120733, -2.726507, 0.335618, -2.169247, -0.089687, -0.724365, -0.270996, -0.074219, 0.068354, -0.003264, 0.018624, 0.999940, 0.001678, -0.010846, -0.000448, -7.934181, -73.509604, 170.326761, , , 0.000000, , , 
30890, , 6.216831, -1.594468, 1.151746, -0.136649, 1.466967, -3.460890, 0.948452, -2.543567, -0.219700, -0.733398, -0.246826, -0.065674, 0.061998, -0.016070, 0.012231, 0.999907, 0.004742, -0.012717, -0.001098, -7.635059, -75.010347, 170.583287, , , 0.000000, , , 
30891, , 7.007023, 0.040504, 2.076874, 0.227450, -0.340570, -2.516002, 1.727377, -2.901106, -0.359500, -0.742188, -0.222656, -0.048584, 0.069759, 0.000094, 0.021784, 0.999856, 0.008636, -0.014505, -0.001797, -6.653865, -76.684762, 170.592190, , , 0.000000, , , 
30892, , 7.988804, 1.561663, 2.267913, 0.021224, -1.823696, -1.562202, 1.490650, -2.985315, -0.391383, -0.761719, -0.204834, -0.044434, 0.079567, 0.015285, 0.023983, 0.999859, 0.007453, -0.014926, -0.001957, -5.602150, -78.448578, 170.392129, , , 0.000000, , , 
30893, , 8.391171, 1.882987, 0.916072, -1.143797, -1.786987, -1.428862, 1.213718, -2.987552, -0.427706, -0.770508, -0.189453, -0.038086, 0.083801, 0.018589, 0.010526, 0.999868, 0.006068, -0.014937, -0.002138, -4.403191, -80.174765, 169.879845, , , 0.000000, , , 
30894, , 8.600015, 2.717408, 0.635977, -1.365406, -2.544567, -1.245152, 1.252421, -2.985103, -0.448071, -0.794189, -0.178223, -0.035889, 0.085951, 0.026936, 0.007812, 0.999867, 0.006262, -0.014925, -0.002240, -2.696113, -81.936509, 168.881084, , , 0.000000, , , 
30895, , 9.125364, 2.899805, 0.273706, -1.533192, -2.648216, -0.736096, 1.198979, -2.938868, -0.442542, -0.809082, -0.180176, -0.031738, 0.091262, 0.028774, 0.004251, 0.999872, 0.005995, -0.014694, -0.002213, -0.361227, -83.626351, 167.220276, , , 0.000000, , , 
30896, , 9.405953, 2.244810, -0.207888, -1.578257, -1.922322, -0.465983, 1.257967, -2.803306, -0.422178, -0.823975, -0.186768, -0.031738, 0.094122, 0.022256, -0.000619, 0.999880, 0.006290, -0.014016, -0.002111, 3.385465, -85.264550, 164.183843, , , 0.000000, , , 
30897, , 8.965035, 1.858703, -0.117698, -1.094858, -1.599268, -0.864047, 1.369081, -2.669278, -0.394736, -0.847168, -0.199463, -0.029541, 0.089691, 0.018412, 0.000146, 0.999886, 0.006845, -0.013346, -0.001974, 9.941888, -86.758972, 158.398446, , , 0.000000, , , 
30898, , 8.328906, 1.556558, -0.144876, -0.771204, -1.331805, -1.479535, 1.323559, -2.571239, -0.337504, -0.862061, -0.212646, -0.025146, 0.083324, 0.015429, -0.000275, 0.999894, 0.006618, -0.012856, -0.001687, 25.418819, -88.149728, 143.670278, , , 0.000000, , , 
30899, , 7.754454, 0.981606, -0.271234, -0.550999, -0.773961, -2.049796, 1.155205, -2.512125, -0.281778, -0.876465, -0.238770, -0.020752, 0.077584, 0.009718, -0.001682, 0.999903, 0.005776, -0.012560, -0.001409, 77.069232, -89.008239, 92.669391, , , 0.000000, , , 
30900, , 7.473305, 0.380741, 0.081522, 0.111407, -0.266794, -2.335056, 1.061945, -2.608868, -0.266078, -0.878174, -0.267334, -0.007568, 0.074719, 0.003700, 0.001810, 0.999900, 0.005310, -0.013044, -0.001330, 139.682393, -88.264946, 30.655091, , , 0.000000, , , 
30901, , 8.022261, -0.298749, 0.518081, 0.877866, 0.326604, -1.823128, 1.028614, -2.727455, -0.267942, -0.886230, -0.293457, 0.007812, 0.080138, -0.003125, 0.006258, 0.999893, 0.005143, -0.013637, -0.001340, 156.582593, -86.842308, 14.330898, , , 0.000000, , , 
30902, , 8.864137, -1.165973, 0.365559, 1.138202, 1.209789, -1.020506, 1.034544, -2.735345, -0.258174, -0.892090, -0.326416, 0.031738, 0.088566, -0.011797, 0.004806, 0.999892, 0.005173, -0.013676, -0.001291, 163.086428, -85.279218, 8.409718, , , 0.000000, , , 
30903, , 10.147943, -1.916046, -0.216453, 1.020051, 2.041784, 0.261245, 1.183636, -2.705552, -0.244786, -0.891602, -0.348389, 0.051514, 0.101474, -0.019277, -0.000906, 0.999890, 0.005918, -0.013527, -0.001224, 166.576161, -83.745865, 5.585572, , , 0.000000, , , 
30904, , 10.944061, -2.384352, -0.436958, 1.213025, 2.528103, 1.039975, 1.358492, -2.644892, -0.188064, -0.886963, -0.375000, 0.086182, 0.109465, -0.023923, -0.003084, 0.999889, 0.006792, -0.013224, -0.000940, 169.106731, -82.203933, 3.823121, , , 0.000000, , , 
30905, , 10.761077, -2.493781, -0.664918, 1.222803, 2.643635, 0.863131, 1.485907, -2.542555, -0.158004, -0.884521, -0.394775, 0.110107, 0.107666, -0.024979, -0.005466, 0.999891, 0.007429, -0.012712, -0.000790, 171.037934, -80.753210, 2.731422, , , 0.000000, , , 
30906, , 9.970514, -2.505375, -1.233147, 0.760253, 2.687270, 0.157574, 1.661935, -2.364779, -0.128005, -0.877686, -0.410156, 0.142578, 0.099827, -0.025021, -0.011360, 0.999895, 0.008309, -0.011823, -0.000640, 172.684910, -79.365478, 2.028612, , , 0.000000, , , 
30907, , 9.243258, -1.823017, -1.392033, 0.595434, 1.986893, -0.517854, 1.840791, -2.289250, -0.058217, -0.868896, -0.423584, 0.166504, 0.092580, -0.018134, -0.013028, 0.999892, 0.009204, -0.011446, -0.000291, 174.316409, -78.058326, 1.440581, , , 0.000000, , , 
30908, , 9.283259, -1.222293, -1.110911, 1.024588, 1.332454, -0.534827, 1.781631, -2.286785, 0.014956, -0.860107, -0.432617, 0.196777, 0.092953, -0.012123, -0.010155, 0.999895, 0.008908, -0.011434, 0.000075, 175.891364, -76.718611, 0.875126, , , 0.000000, , , 
30909, , 9.837059, -0.987047, -0.996243, 1.446670, 1.059995, -0.039536, 1.758734, -2.254355, 0.053769, -0.855713, -0.441406, 0.229248, 0.098478, -0.009762, -0.008939, 0.999898, 0.008793, -0.011271, 0.000269, 177.330240, -75.430822, 0.431013, , , 0.000000, , , 
30910, , 11.037079, -0.420853, -0.132699, 2.784882, 0.435983, 0.867270, 1.682692, -2.217017, 0.088022, -0.838623, -0.446045, 0.259521, 0.110379, -0.004155, -0.000139, 0.999903, 0.008413, -0.011085, 0.000440, 178.657657, -74.129592, 0.056857, , , 0.000000, , , 
30911, , 11.645575, -0.065911, -0.033021, 3.266862, 0.059848, 1.365160, 1.398139, -2.022572, 0.131031, -0.832275, -0.444092, 0.285645, 0.116452, -0.000586, 0.000843, 0.999924, 0.006991, -0.010113, 0.000655, 179.766234, -72.971605, -0.263654, , , 0.000000, , , 
30912, , 11.427907, 0.351881, -0.298508, 3.160315, -0.378686, 1.172556, 1.213280, -1.718091, 0.192052, -0.823486, -0.448486, 0.300781, 0.114296, 0.003643, -0.001981, 0.999944, 0.006066, -0.008590, 0.000960, -179.194148, -71.956074, -0.622691, , , 0.000000, , , 
30913, , 12.071227, 1.523521, 1.196028, 4.970013, -1.567348, 1.246481, 1.057739, -1.499378, 0.244590, -0.819336, -0.446533, 0.318115, 0.120599, 0.015316, 0.012946, 0.999957, 0.005289, -0.007497, 0.001223, -178.227325, -71.093717, -1.002985, , , 0.000000, , , 
30914, , 13.062172, 2.513687, 1.874097, 6.120884, -2.571414, 1.865108, 0.896776, -1.223189, 0.312821, -0.819336, -0.439941, 0.326660, 0.130464, 0.025254, 0.019652, 0.999970, 0.004484, -0.006116, 0.001564, -177.272897, -70.359527, -1.467882, , , 0.000000, , , 
30915, , 13.449552, 2.557877, 1.287226, 5.850431, -2.656410, 2.344776, 0.966675, -0.974020, 0.329274, -0.815186, -0.435547, 0.339600, 0.134388, 0.025735, 0.013651, 0.999975, 0.004833, -0.004870, 0.001646, -176.286566, -69.791348, -1.927801, , , 0.000000, , , 
30916, , 13.112085, 2.425421, 1.225953, 5.802929, -2.546533, 1.983592, 1.090797, -0.744472, 0.304456, -0.817383, -0.426758, 0.350342, 0.131037, 0.024385, 0.012880, 0.999977, 0.005454, -0.003722, 0.001522, -175.278921, -69.331605, -2.334946, , , 0.000000, , , 
30917, , 13.274916, 2.099784, 1.292014, 6.013227, -2.239404, 2.067000, 1.099193, -0.619947, 0.269870, -0.817627, -0.417969, 0.343750, 0.132680, 0.021104, 0.013447, 0.999979, 0.005496, -0.003100, 0.001349, -174.330033, -68.963438, -2.676332, , , 0.000000, , , 
30918, , 13.789994, 2.008074, 1.098377, 6.106638, -2.185364, 2.570166, 0.973819, -0.544621, 0.273093, -0.826172, -0.411377, 0.350098, 0.137842, 0.020214, 0.011457, 0.999984, 0.004869, -0.002723, 0.001365, -173.461919, -68.620242, -3.008405, , , 0.000000, , , 
30919, , 14.020898, 1.424193, 0.709266, 5.872423, -1.655438, 2.910938, 0.829964, -0.414778, 0.255532, -0.824463, -0.393799, 0.345703, 0.140175, 0.014391, 0.007443, 0.999988, 0.004150, -0.002074, 0.001278, -172.691002, -68.366232, -3.325816, , , 0.000000, , , 
30920, , 13.944991, 0.632920, 0.998824, 6.117902, -0.863933, 2.744612, 0.771642, -0.244122, 0.202090, -0.833008, -0.385010, 0.341309, 0.139431, 0.006431, 0.010183, 0.999991, 0.003858, -0.001221, 0.001010, -172.016303, -68.201144, -3.576075, , , 0.000000, , , 
30921, , 13.584474, -0.129619, 1.844928, 6.737317, -0.041183, 2.127386, 0.614652, -0.034973, 0.169089, -0.842041, -0.367188, 0.334717, 0.135843, -0.001238, 0.018469, 0.999995, 0.003073, -0.000175, 0.000845, -171.432636, -68.166914, -3.825353, , , 0.000000, , , 
30922, , 14.332343, -0.298169, 3.149694, 8.207559, 0.212226, 2.353513, 0.479129, 0.103136, 0.165703, -0.848633, -0.351807, 0.319580, 0.143342, -0.002938, 0.031416, 0.999997, 0.002396, 0.000516, 0.000829, -170.909965, -68.205105, -4.092830, , , 0.000000, , , 
30923, , 16.031007, 0.507997, 4.355683, 9.982629, -0.543137, 3.464170, 0.383775, 0.404538, 0.240370, -0.879150, -0.320557, 0.293213, 0.160392, 0.005190, 0.043242, 0.999995, 0.001919, 0.002023, 0.001202, -170.254027, -68.410771, -4.562034, , , 0.000000, , , 
30924, , 16.934276, 1.781284, 4.963806, 10.887300, -1.822858, 4.069801, 0.346956, 0.980001, 0.375845, -0.898926, -0.285156, 0.271484, 0.169550, 0.018046, 0.048839, 0.999985, 0.001735, 0.004900, 0.001879, -169.264697, -68.926917, -5.411114, , , 0.000000, , , 
30925, , 17.521894, 3.105981, 5.188882, 11.232339, -3.220973, 4.576223, 0.246987, 1.659328, 0.488497, -0.931885, -0.223389, 0.236328, 0.175565, 0.031425, 0.050472, 0.999962, 0.001235, 0.008297, 0.002442, -167.895669, -69.803020, -6.722652, , , 0.000000, , , 
30926, , 18.277984, 4.184426, 4.247130, 10.370613, -4.545453, 5.724385, 0.099901, 2.658355, 0.577983, -0.954590, -0.148438, 0.203369, 0.183201, 0.042353, 0.040059, 0.999907, 0.000499, 0.013291, 0.002890, -165.963309, -71.223104, -8.712181, , , 0.000000, , , 
30927, , 18.006065, 3.083054, 1.763363, 7.329990, -3.856223, 6.563938, 0.113951, 3.805281, 0.643748, -0.977295, -0.064697, 0.183350, 0.180252, 0.031402, 0.014223, 0.999814, 0.000570, 0.019025, 0.003219, -162.968848, -73.225264, -11.787584, , , 0.000000, , , 
30928, , 16.077535, 0.611945, -0.755508, 3.499834, -1.715177, 5.813996, 0.126706, 4.700871, 0.620807, -0.985107, 0.014404, 0.187012, 0.160519, 0.006624, -0.011326, 0.999719, 0.000633, 0.023502, 0.003104, -158.507877, -75.671429, -16.341687, , , 0.000000, , , 
30929, , 14.357658, -1.970076, -2.518408, 0.453586, 0.647848, 4.873882, -0.300085, 5.083652, 0.491447, -0.983887, 0.075928, 0.206055, 0.142923, -0.019390, -0.028793, 0.999673, -0.001500, 0.025415, 0.002457, -152.352678, -78.207064, -22.834864, , , 0.000000, , , 
30930, , 13.112799, -3.052497, -3.732959, -1.739050, 1.632201, 3.952309, -0.974461, 4.963049, 0.275351, -0.981934, 0.093262, 0.251221, 0.130193, -0.030537, -0.040420, 0.999679, -0.004872, 0.024813, 0.001377, -144.195703, -80.570374, -31.698497, , , 0.000000, , , 
30931, , 13.889027, -3.062349, -4.478895, -3.004348, 1.523521, 4.711823, -1.602548, 4.727091, -0.006704, -0.990234, 0.075684, 0.309814, 0.137783, -0.031003, -0.047807, 0.999689, -0.008012, 0.023633, -0.000034, -132.991297, -82.615818, -43.949932, , , 0.000000, , , 
30932, , 14.814139, -2.306347, -5.813832, -4.858060, 0.704065, 5.498781, -1.733649, 4.555300, -0.205963, -1.000000, 0.025146, 0.340332, 0.146745, -0.023737, -0.061288, 0.999703, -0.008667, 0.022774, -0.001030, -115.740451, -84.225847, -62.321663, , , 0.000000, , , 
30933, , 15.943006, -0.618632, -5.992886, -5.596139, -0.940995, 6.256859, -1.393549, 4.223007, -0.442455, -1.013672, -0.047119, 0.351562, 0.158103, -0.006970, -0.063230, 0.999750, -0.006967, 0.021113, -0.002212, -91.918986, -85.070135, -87.045460, , , 0.000000, , , 
30934, , 16.695897, 0.492436, -5.327235, -5.575442, -1.936426, 6.694831, -0.985350, 3.900906, -0.623968, -1.027832, -0.104004, 0.321777, 0.165891, 0.004132, -0.056537, 0.999793, -0.004926, 0.019503, -0.003120, -66.061069, -84.996845, -113.562173, , , 0.000000, , , 
30935, , 17.912209, 0.445056, -5.217275, -6.154681, -1.815350, 7.710145, -0.564818, 3.604234, -0.739069, -1.005859, -0.139160, 0.265869, 0.178158, 0.003638, -0.055400, 0.999827, -0.002824, 0.018020, -0.003695, -45.722130, -84.176538, -134.314726, , , 0.000000, , , 
30936, , 18.118969, 0.286838, -5.996226, -7.578114, -1.504914, 7.640165, 0.167769, 3.540698, -0.792072, -0.957031, -0.135254, 0.220459, 0.180100, 0.002206, -0.063155, 0.999835, 0.000839, 0.017703, -0.003960, -31.249641, -82.859861, -148.779050, , , 0.000000, , , 
30937, , 16.773207, 1.842473, -4.208050, -6.243235, -2.837660, 6.167977, 0.569382, 3.534288, -0.861665, -0.912109, -0.131348, 0.198975, 0.167032, 0.017829, -0.044985, 0.999831, 0.002847, 0.017670, -0.004308, -21.309165, -81.257468, -158.484882, , , 0.000000, , , 
30938, , 15.238017, 1.475827, -3.513704, -5.879552, -2.245624, 4.577682, 0.030285, 3.523827, -0.936219, -0.880127, -0.140381, 0.177490, 0.151797, 0.014052, -0.037813, 0.999834, 0.000151, 0.017618, -0.004681, -14.550508, -79.499815, -165.317652, , , 0.000000, , , 
30939, , 14.564819, 2.974894, -2.682045, -5.448694, -3.560557, 3.817597, 0.122741, 3.745005, -1.082062, -0.860596, -0.156006, 0.147461, 0.145270, 0.028980, -0.029525, 0.999810, 0.000614, 0.018724, -0.005410, -9.308475, -77.526888, -170.594036, , , 0.000000, , , 
30940, , 11.567921, 2.818595, 0.803637, -1.911050, -3.165561, 1.532465, -0.812218, 4.064482, -1.073307, -0.845459, -0.175781, 0.102051, 0.115958, 0.027590, 0.005569, 0.999771, -0.004061, 0.020321, -0.005366, -5.923905, -75.302970, -174.548571, , , 0.000000, , , 
30941, , 9.824094, 0.158883, 1.590570, -1.132593, -0.367811, 0.068462, -1.491911, 3.814826, -1.124188, -0.832275, -0.197754, 0.056885, 0.098528, 0.001145, 0.014018, 0.999774, -0.007459, 0.019073, -0.005621, -3.843107, -73.179623, -177.598266, , , 0.000000, , , 
30942, , 9.378402, -1.129817, 1.363628, -1.535234, 1.032147, -0.450049, -1.327343, 3.527729, -1.184216, -0.812744, -0.224121, 0.007568, 0.093937, -0.011771, 0.012057, 0.999805, -0.006636, 0.017637, -0.005921, -2.123885, -71.199941, 179.804621, , , 0.000000, , , 
30943, , 8.473889, -0.005294, -0.796373, -3.621291, 0.106694, -2.111582, -2.098379, 3.627706, -1.051072, -0.793213, -0.235352, -0.041992, 0.084574, -0.000592, -0.009495, 0.999767, -0.010491, 0.018137, -0.005255, -1.474584, -69.141414, 177.836619, , , 0.000000, , , 
30944, , 6.990145, -1.000152, -4.628918, -6.802715, 1.471145, -5.033628, -2.583794, 3.388287, -0.875074, -0.778076, -0.250732, -0.091553, 0.069059, -0.010912, -0.047327, 0.999763, -0.012918, 0.016940, -0.004375, -1.541026, -67.218918, 176.321555, , , 0.000000, , , 
30945, , 5.874602, -1.027920, -5.045966, -6.844080, 1.682467, -6.443547, -2.057838, 3.049995, -0.760861, -0.760986, -0.263916, -0.130371, 0.057928, -0.011025, -0.051236, 0.999824, -0.010289, 0.015249, -0.003804, -1.613944, -65.484324, 175.114163, , , 0.000000, , , 
30946, , 5.317532, -0.031044, -3.613671, -5.498283, 0.659229, -6.546720, -1.973371, 2.725694, -0.652091, -0.750000, -0.274902, -0.166992, 0.052674, -0.000844, -0.036850, 0.999853, -0.009866, 0.013628, -0.003260, -1.826166, -63.944480, 174.106990, , , 0.000000, , , 
30947, , 4.520478, -0.079492, -3.174130, -4.815147, 0.722482, -7.203784, -1.869612, 2.492463, -0.531308, -0.726562, -0.286133, -0.201416, 0.044802, -0.001214, -0.032291, 0.999875, -0.009348, 0.012462, -0.002656, -2.193821, -62.528294, 173.319137, , , 0.000000, , , 
30948, , 3.797417, 0.302360, -2.190493, -3.728165, 0.246269, -7.499883, -1.719950, 2.268035, -0.426069, -0.719971, -0.290527, -0.233887, 0.037728, 0.002752, -0.022358, 0.999896, -0.008599, 0.011340, -0.002130, -2.594798, -61.253749, 172.665915, , , 0.000000, , , 
