PacketCounter, SampleTimeFine, Acc_X, Acc_Y, Acc_Z, FreeAcc_X, FreeAcc_Y, FreeAcc_Z, Gyr_X, Gyr_Y, Gyr_Z, Mag_X, Mag_Y, Mag_Z, VelInc_X, VelInc_Y, VelInc_Z, OriInc_q0, OriInc_q1, OriInc_q2, OriInc_q3, Roll, Pitch, Yaw, Latitude, Longitude, Altitude, Vel_X, Vel_Y, Vel_Z
09371, , 9.729895, -1.587827, -0.789147, 0.000000, -0.000000, 0.077449, 0.071835, -0.013408, -0.028518, -0.966553, -0.215576, -0.133301, 0.097297, -0.015889, -0.007891, 1.000000, 0.000359, -0.000067, -0.000143, -116.409054, -79.666483, 175.679876, , , 0.000000, , , 
09372, , 9.735205, -1.468231, -0.757849, -0.000000, 0.000000, 0.061737, 0.062301, -0.008534, -0.017596, -0.966553, -0.217529, -0.133301, 0.097351, -0.014689, -0.007579, 1.000000, 0.000312, -0.000043, -0.000088, -117.292616, -80.364054, 176.273657, , , 0.000000, , , 
09373, , 9.696594, -1.501149, -0.775648, -0.016640, 0.015887, 0.029999, 0.030761, -0.007809, -0.014097, -0.966553, -0.219727, -0.137451, 0.096965, -0.015017, -0.007755, 1.000000, 0.000154, -0.000039, -0.000070, -116.840401, -80.014945, 176.016723, , , 0.000000, , , 
09374, , 9.633647, -1.655079, -0.809964, 0.142697, -0.034687, -0.005500, 0.034495, -0.002699, -0.014581, -0.973145, -0.215576, -0.139648, 0.096335, -0.016556, -0.008101, 1.000000, 0.000172, -0.000013, -0.000073, -116.849913, -80.021701, 176.046450, , , 0.000000, , , 
09375, , 9.658017, -1.725426, -0.792209, 0.190173, -0.084346, 0.027979, 0.065140, -0.003159, -0.013086, -0.970947, -0.215576, -0.135498, 0.096579, -0.017258, -0.007926, 1.000000, 0.000326, -0.000016, -0.000065, -116.798140, -80.027497, 176.029650, , , 0.000000, , , 
09376, , 9.640540, -1.597678, -0.829015, 0.104969, 0.012909, -0.006125, 0.095110, -0.000721, -0.015983, -0.966553, -0.219727, -0.133301, 0.096404, -0.015981, -0.008297, 1.000000, 0.000476, -0.000004, -0.000080, -116.769223, -80.035486, 176.055619, , , 0.000000, , , 
09377, , 9.653804, -1.621260, -0.774471, 0.096765, -0.044690, 0.006318, 0.100598, 0.000933, -0.020665, -0.971191, -0.211182, -0.133301, 0.096536, -0.016219, -0.007753, 1.000000, 0.000503, 0.000005, -0.000103, -116.728365, -80.045789, 176.072153, , , 0.000000, , , 
09378, , 9.710649, -1.548814, -0.764603, 0.022628, -0.014526, 0.050346, 0.096717, 0.007090, -0.017958, -0.968750, -0.219727, -0.137451, 0.097105, -0.015493, -0.007657, 1.000000, 0.000484, 0.000035, -0.000090, -116.678622, -80.056806, 176.077911, , , 0.000000, , , 
09379, , 9.693237, -1.612911, -0.799218, 0.099580, -0.015080, 0.045758, 0.085731, 0.013178, -0.022662, -0.968750, -0.219727, -0.133301, 0.096930, -0.016137, -0.008005, 1.000000, 0.000429, 0.000066, -0.000113, -116.591752, -80.070831, 176.038083, , , 0.000000, , , 
09380, , 9.663037, -1.624084, -0.839614, 0.137376, 0.015409, 0.020815, 0.104962, 0.015026, -0.025655, -0.968750, -0.224121, -0.124756, 0.096628, -0.016249, -0.008412, 1.000000, 0.000525, 0.000075, -0.000128, -116.525160, -80.087828, 176.031531, , , 0.000000, , , 
09381, , 9.673388, -1.550071, -0.726728, 0.019348, -0.043264, 0.010909, 0.109004, 0.021901, -0.028072, -0.970947, -0.217773, -0.131104, 0.096731, -0.015510, -0.007286, 1.000000, 0.000545, 0.000110, -0.000140, -116.476162, -80.106707, 176.047074, , , 0.000000, , , 
09382, , 9.654619, -1.550943, -0.708911, 0.017891, -0.057585, -0.008810, 0.044653, 0.020156, -0.026803, -0.970947, -0.215576, -0.131104, 0.096543, -0.015521, -0.007102, 1.000000, 0.000223, 0.000101, -0.000134, -116.430499, -80.125600, 176.026693, , , 0.000000, , , 
09383, , 9.600417, -1.654088, -0.719067, 0.122894, -0.100687, -0.045608, 0.027910, 0.014947, -0.029463, -0.970947, -0.217773, -0.131104, 0.096001, -0.016554, -0.007200, 1.000000, 0.000140, 0.000075, -0.000147, -116.408329, -80.142997, 176.020425, , , 0.000000, , , 
09384, , 9.633306, -1.672679, -0.678977, 0.116211, -0.144290, -0.013447, 0.019172, 0.009566, -0.029725, -0.968750, -0.224121, -0.133057, 0.096330, -0.016740, -0.006796, 1.000000, 0.000096, 0.000048, -0.000149, -116.412707, -80.160688, 176.036017, , , 0.000000, , , 
09385, , 9.641821, -1.619891, -0.658131, 0.061697, -0.136860, -0.014761, -0.016634, -0.008749, -0.031609, -0.966553, -0.217529, -0.135254, 0.096416, -0.016215, -0.006576, 1.000000, -0.000083, -0.000044, -0.000158, -116.491789, -80.172104, 176.107280, , , 0.000000, , , 
09386, , 9.621337, -1.642133, -0.733215, 0.123919, -0.086251, -0.025883, -0.044419, -0.005468, -0.033773, -0.970947, -0.224121, -0.131104, 0.096211, -0.016439, -0.007326, 1.000000, -0.000222, -0.000027, -0.000169, -116.583381, -80.188016, 176.174405, , , 0.000000, , , 
09387, , 9.573490, -1.631574, -0.675177, 0.096013, -0.134425, -0.079121, -0.042060, -0.016366, -0.040400, -0.968750, -0.221924, -0.135254, 0.095732, -0.016336, -0.006741, 1.000000, -0.000210, -0.000082, -0.000202, -116.697160, -80.200927, 176.265866, , , 0.000000, , , 
09388, , 9.558103, -1.698493, -0.672962, 0.156784, -0.174967, -0.084383, -0.040427, -0.027373, -0.045561, -0.964355, -0.219727, -0.135254, 0.095578, -0.017008, -0.006713, 1.000000, -0.000202, -0.000137, -0.000228, -116.869622, -80.217164, 176.417371, , , 0.000000, , , 
09389, , 9.655301, -1.650296, -0.703135, 0.115873, -0.127936, 0.006320, -0.027918, -0.041068, -0.048349, -0.964111, -0.226318, -0.130859, 0.096550, -0.016527, -0.007009, 1.000000, -0.000140, -0.000205, -0.000242, -117.036208, -80.226145, 176.570237, , , 0.000000, , , 
09390, , 9.692706, -1.576839, -0.685329, 0.040272, -0.112087, 0.030607, -0.026758, -0.042556, -0.049407, -0.964355, -0.221924, -0.131104, 0.096925, -0.015793, -0.006831, 1.000000, -0.000134, -0.000213, -0.000247, -117.252617, -80.240211, 176.774273, , , 0.000000, , , 
09391, , 9.686316, -1.519763, -0.810920, 0.057080, 0.018673, 0.025421, -0.051197, -0.045875, -0.056366, -0.968750, -0.219727, -0.133301, 0.096861, -0.015227, -0.008083, 1.000000, -0.000256, -0.000229, -0.000282, -117.485603, -80.251216, 176.983065, , , 0.000000, , , 
09392, , 9.732398, -1.559678, -0.724537, 0.042247, -0.082843, 0.070048, -0.055392, -0.041469, -0.051763, -0.970947, -0.221924, -0.137451, 0.097321, -0.015624, -0.007221, 1.000000, -0.000277, -0.000207, -0.000259, -117.720042, -80.266489, 177.188732, , , 0.000000, , , 
09393, , 9.587196, -1.483766, -0.784967, 0.034005, 0.001064, -0.079708, -0.073106, -0.045534, -0.056936, -0.968750, -0.224121, -0.133057, 0.095870, -0.014868, -0.007822, 1.000000, -0.000366, -0.000228, -0.000285, -117.920924, -80.276799, 177.349815, , , 0.000000, , , 
09394, , 9.646603, -1.604419, -0.739965, 0.105805, -0.106536, -0.006765, -0.058057, -0.055567, -0.053354, -0.970703, -0.226318, -0.133057, 0.096464, -0.016072, -0.007368, 1.000000, -0.000290, -0.000278, -0.000267, -118.202212, -80.288796, 177.601448, , , 0.000000, , , 
09395, , 9.575880, -1.584034, -0.755452, 0.108728, -0.090333, -0.078348, -0.025800, -0.064431, -0.051899, -0.968750, -0.219971, -0.126953, 0.095757, -0.015866, -0.007522, 1.000000, -0.000129, -0.000322, -0.000259, -118.446112, -80.292018, 177.835131, , , 0.000000, , , 
09396, , 9.666562, -1.619016, -0.814484, 0.153765, -0.065004, 0.020885, 0.005595, -0.070059, -0.051292, -0.966309, -0.224121, -0.131104, 0.096664, -0.016215, -0.008111, 1.000000, 0.000028, -0.000350, -0.000256, -118.731230, -80.298615, 178.127640, , , 0.000000, , , 
09397, , 9.697636, -1.601208, -0.777679, 0.114070, -0.094197, 0.045857, 0.035988, -0.069097, -0.053847, -0.964355, -0.221924, -0.124756, 0.096975, -0.016037, -0.007746, 1.000000, 0.000180, -0.000345, -0.000269, -118.958251, -80.295339, 178.381006, , , 0.000000, , , 
09398, , 9.727179, -1.447575, -0.834624, 0.008805, 0.025915, 0.056929, 0.063615, -0.058078, -0.055380, -0.968506, -0.226318, -0.124512, 0.097270, -0.014500, -0.008323, 1.000000, 0.000318, -0.000290, -0.000277, -119.182181, -80.306897, 178.645161, , , 0.000000, , , 
09399, , 9.773757, -1.386796, -0.847425, -0.044298, 0.062614, 0.094975, 0.054950, -0.048060, -0.050096, -0.966309, -0.226318, -0.128906, 0.097736, -0.013890, -0.008455, 1.000000, 0.000275, -0.000240, -0.000250, -119.350411, -80.307368, 178.851506, , , 0.000000, , , 
09400, , 9.731851, -1.320214, -0.812145, -0.109394, 0.060144, 0.041037, 0.009933, -0.040609, -0.050686, -0.968506, -0.226318, -0.124512, 0.097317, -0.013226, -0.008102, 1.000000, 0.000050, -0.000203, -0.000253, -119.547143, -80.321202, 179.056859, , , 0.000000, , , 
09401, , 9.674209, -1.382051, -0.865909, -0.020034, 0.069870, -0.002239, -0.053197, -0.045562, -0.031697, -0.970703, -0.228516, -0.126709, 0.096742, -0.013838, -0.008633, 1.000000, -0.000266, -0.000228, -0.000158, -119.732589, -80.317588, 179.216036, , , 0.000000, , , 
09402, , 9.674163, -1.536920, -0.864895, 0.111088, -0.015770, 0.020268, -0.023239, -0.051377, -0.028196, -0.966309, -0.224121, -0.122559, 0.096742, -0.015384, -0.008622, 1.000000, -0.000116, -0.000257, -0.000141, -119.942734, -80.316941, 179.415714, , , 0.000000, , , 
09403, , 9.635563, -1.569170, -0.887163, 0.154253, -0.017870, -0.011192, 0.022720, -0.052056, -0.020601, -0.966309, -0.228516, -0.130859, 0.096356, -0.015701, -0.008848, 1.000000, 0.000114, -0.000260, -0.000103, -120.093320, -80.304314, 179.584036, , , 0.000000, , , 
09404, , 9.681667, -1.483371, -0.853327, 0.055649, -0.007805, 0.018898, 0.065244, -0.050681, -0.015064, -0.968750, -0.224121, -0.126709, 0.096818, -0.014838, -0.008514, 1.000000, 0.000326, -0.000253, -0.000075, -120.228296, -80.297166, 179.758898, , , 0.000000, , , 
09405, , 9.710146, -1.492055, -0.902590, 0.080390, 0.028051, 0.052432, 0.090175, -0.051321, -0.012999, -0.970703, -0.228516, -0.128906, 0.097103, -0.014923, -0.009008, 1.000000, 0.000451, -0.000257, -0.000065, -120.299214, -80.282361, 179.882663, , , 0.000000, , , 
09406, , 9.702255, -1.513412, -0.880296, 0.087085, -0.005180, 0.045886, 0.107370, -0.053062, -0.009349, -0.964111, -0.228516, -0.122559, 0.097024, -0.015134, -0.008785, 1.000000, 0.000537, -0.000265, -0.000047, -120.406586, -80.271607, -179.945985, , , 0.000000, , , 
09407, , 9.686345, -1.455130, -0.931552, 0.062964, 0.066698, 0.026116, 0.124553, -0.046371, -0.012235, -0.970703, -0.228516, -0.128906, 0.096865, -0.014551, -0.009302, 1.000000, 0.000623, -0.000232, -0.000061, -120.459458, -80.257419, -179.819316, , , 0.000000, , , 
09408, , 9.667074, -1.430294, -0.872731, 0.014150, 0.026433, -0.001530, 0.129819, -0.044842, -0.002353, -0.970703, -0.232910, -0.120361, 0.096673, -0.014298, -0.008715, 1.000000, 0.000649, -0.000224, -0.000012, -120.517880, -80.245543, -179.684570, , , 0.000000, , , 
09409, , 9.668596, -1.465382, -0.880258, 0.044222, 0.014010, 0.005755, 0.126567, -0.051526, -0.001448, -0.970703, -0.226318, -0.124512, 0.096688, -0.014649, -0.008787, 1.000000, 0.000633, -0.000258, -0.000007, -120.572009, -80.225273, -179.555738, , , 0.000000, , , 
09410, , 9.727440, -1.491746, -0.932659, 0.079610, 0.043950, 0.072148, 0.148660, -0.057977, 0.007106, -0.973145, -0.226318, -0.126709, 0.097278, -0.014907, -0.009309, 1.000000, 0.000743, -0.000290, 0.000036, -120.640539, -80.204871, -179.399766, , , 0.000000, , , 
09411, , 9.697908, -1.513057, -0.936805, 0.099573, 0.036727, 0.046578, 0.179916, -0.057609, 0.010382, -0.968506, -0.228516, -0.118164, 0.096983, -0.015117, -0.009354, 1.000000, 0.000900, -0.000288, 0.000052, -120.637591, -80.173769, -179.300607, , , 0.000000, , , 
09412, , 9.673910, -1.479578, -0.961929, 0.083330, 0.074507, 0.020242, 0.222810, -0.059690, 0.014434, -0.968506, -0.228516, -0.116211, 0.096743, -0.014778, -0.009607, 0.999999, 0.001114, -0.000298, 0.000072, -120.655024, -80.149229, -179.153360, , , 0.000000, , , 
09413, , 9.703892, -1.498708, -0.967400, 0.091007, 0.069942, 0.053129, 0.273437, -0.055142, 0.016094, -0.968506, -0.226318, -0.116211, 0.097043, -0.014966, -0.009668, 0.999999, 0.001367, -0.000276, 0.000080, -120.627737, -80.114335, -179.019721, , , 0.000000, , , 
09414, , 9.720798, -1.436609, -0.932529, 0.013945, 0.071473, 0.057574, 0.298721, -0.050816, 0.010090, -0.968506, -0.230713, -0.111816, 0.097211, -0.014347, -0.009322, 0.999999, 0.001494, -0.000254, 0.000050, -120.583205, -80.094532, -178.891193, , , 0.000000, , , 
09415, , 9.738814, -1.631674, -0.786062, 0.102370, -0.150404, 0.091435, 0.301577, -0.036825, 0.007787, -0.972900, -0.230713, -0.115967, 0.097390, -0.016301, -0.007867, 0.999999, 0.001508, -0.000184, 0.000039, -120.510257, -80.068556, -178.787330, , , 0.000000, , , 
09416, , 9.766770, -1.651508, -0.631721, 0.038669, -0.292143, 0.108477, 0.296740, -0.031880, 0.002640, -0.966309, -0.232910, -0.120361, 0.097669, -0.016504, -0.006326, 0.999999, 0.001484, -0.000159, 0.000013, -120.425708, -80.057968, -178.700558, , , 0.000000, , , 
09417, , 9.713964, -1.659620, -0.898141, 0.179774, -0.059925, 0.081057, 0.290956, -0.039597, 0.002306, -0.966309, -0.226318, -0.116211, 0.097142, -0.016582, -0.008986, 0.999999, 0.001455, -0.000198, 0.000012, -120.336847, -80.039084, -178.622203, , , 0.000000, , , 
09418, , 9.810898, -1.372511, -0.798456, -0.133761, -0.006238, 0.124973, 0.293401, -0.029439, 0.000231, -0.964111, -0.226318, -0.109863, 0.098110, -0.013713, -0.007990, 0.999999, 0.001467, -0.000147, 0.000001, -120.251140, -80.030474, -178.538546, , , 0.000000, , , 
09419, , 9.689467, -1.501231, -0.974652, 0.077907, 0.090252, 0.039987, 0.263830, -0.023191, 0.013479, -0.964111, -0.228516, -0.107666, 0.096897, -0.014993, -0.009755, 0.999999, 0.001319, -0.000116, 0.000067, -120.112825, -80.006068, -178.524880, , , 0.000000, , , 
09420, , 9.775209, -1.319743, -1.029356, -0.070528, 0.227505, 0.101912, 0.249416, -0.028546, 0.002973, -0.968506, -0.228516, -0.114014, 0.097754, -0.013183, -0.010296, 0.999999, 0.001247, -0.000143, 0.000015, -120.045133, -79.996382, -178.448518, , , 0.000000, , , 
09421, , 9.621861, -1.531118, -0.941778, 0.095050, 0.053231, -0.024959, 0.221906, -0.005469, -0.001450, -0.966309, -0.226318, -0.109863, 0.096219, -0.015301, -0.009432, 0.999999, 0.001110, -0.000027, -0.000007, -119.926111, -79.986168, -178.439775, , , 0.000000, , , 
09422, , 9.580912, -1.567622, -0.798433, 0.066377, -0.086744, -0.072211, 0.216354, -0.009082, 0.001612, -0.968750, -0.224365, -0.109863, 0.095810, -0.015667, -0.007997, 0.999999, 0.001082, -0.000045, 0.000008, -119.824845, -79.982745, -178.416739, , , 0.000000, , , 
09423, , 9.557468, -1.533450, -0.819996, 0.047927, -0.048348, -0.098552, 0.197191, -0.018955, 0.000414, -0.968506, -0.235107, -0.109619, 0.095575, -0.015326, -0.008206, 1.000000, 0.000986, -0.000095, 0.000002, -119.740900, -79.964079, -178.388160, , , 0.000000, , , 
09424, , 9.566614, -1.548760, -0.849054, 0.072301, -0.028199, -0.084705, 0.174357, -0.015667, -0.000743, -0.968506, -0.230713, -0.111816, 0.095667, -0.015481, -0.008497, 1.000000, 0.000872, -0.000078, -0.000004, -119.685825, -79.959911, -178.342659, , , 0.000000, , , 
09425, , 9.532576, -1.593425, -0.779599, 0.083270, -0.108634, -0.117428, 0.157598, -0.021077, -0.003100, -0.972900, -0.230713, -0.107666, 0.095326, -0.015930, -0.007798, 1.000000, 0.000788, -0.000105, -0.000015, -119.645385, -79.949467, -178.292768, , , 0.000000, , , 
09426, , 9.643511, -1.670354, -0.651183, 0.071049, -0.258151, -0.007600, 0.145142, -0.026247, -0.003272, -0.972900, -0.232910, -0.105469, 0.096436, -0.016700, -0.006511, 1.000000, 0.000726, -0.000131, -0.000016, -119.640718, -79.943607, -178.213072, , , 0.000000, , , 
09427, , 9.771061, -1.740812, -0.580633, 0.074541, -0.353681, 0.122631, 0.115586, -0.033523, 0.006548, -0.977295, -0.232910, -0.105469, 0.097712, -0.017402, -0.005800, 1.000000, 0.000578, -0.000168, 0.000033, -119.635535, -79.919469, -178.148191, , , 0.000000, , , 
09428, , 9.680607, -1.508752, -0.895267, 0.030302, 0.033037, 0.025502, 0.131121, -0.033999, 0.008977, -0.972900, -0.230713, -0.105469, 0.096808, -0.015077, -0.008946, 1.000000, 0.000656, -0.000170, 0.000045, -119.640918, -79.905295, -178.066434, , , 0.000000, , , 
09429, , 9.646928, -1.365383, -0.796398, -0.138261, 0.012876, -0.038105, 0.117762, -0.033166, 0.002023, -0.975342, -0.228760, -0.109863, 0.096471, -0.013648, -0.007956, 1.000000, 0.000589, -0.000166, 0.000010, -119.627974, -79.882553, -178.007622, , , 0.000000, , , 
09430, , 9.578456, -1.451251, -0.858622, -0.024729, 0.027452, -0.087009, 0.109312, -0.036948, 0.000066, -0.977539, -0.230957, -0.107666, 0.095786, -0.014508, -0.008576, 1.000000, 0.000547, -0.000185, 0.000000, -119.667999, -79.871949, -177.903355, , , 0.000000, , , 
09431, , 9.668466, -1.463958, -0.867374, -0.029214, 0.028638, 0.004292, 0.096711, -0.044286, -0.001651, -0.968506, -0.230713, -0.107666, 0.096686, -0.014636, -0.008659, 1.000000, 0.000484, -0.000221, -0.000008, -119.680957, -79.849570, -177.836986, , , 0.000000, , , 
09432, , 9.641073, -1.517935, -0.873326, 0.023451, 0.006982, -0.013885, 0.077436, -0.040947, 0.000948, -0.972900, -0.232910, -0.096924, 0.096413, -0.015176, -0.008719, 1.000000, 0.000387, -0.000205, 0.000005, -119.748191, -79.837340, -177.723637, , , 0.000000, , , 
09433, , 9.641940, -1.583292, -0.924681, 0.100522, 0.020318, 0.001503, 0.068550, -0.045728, -0.006580, -0.970459, -0.239502, -0.101074, 0.096421, -0.015833, -0.009230, 1.000000, 0.000343, -0.000229, -0.000033, -119.827800, -79.819615, -177.598588, , , 0.000000, , , 
09434, , 9.609077, -1.533512, -0.921357, 0.059925, 0.037941, -0.038748, 0.069373, -0.038102, -0.007258, -0.970703, -0.232910, -0.101318, 0.096092, -0.015335, -0.009201, 1.000000, 0.000347, -0.000191, -0.000036, -119.904471, -79.812202, -177.480327, , , 0.000000, , , 
09435, , 9.654892, -1.477677, -0.936233, 0.007859, 0.074008, -0.000885, 0.055575, -0.038572, -0.008676, -0.972900, -0.230713, -0.101318, 0.096550, -0.014778, -0.009348, 1.000000, 0.000278, -0.000193, -0.000043, -119.991083, -79.801142, -177.354663, , , 0.000000, , , 
09436, , 9.683552, -1.458375, -0.939163, -0.013766, 0.082589, 0.024642, 0.036568, -0.033582, -0.007981, -0.968506, -0.230713, -0.105469, 0.096837, -0.014586, -0.009378, 1.000000, 0.000183, -0.000168, -0.000040, -120.075236, -79.795368, -177.247875, , , 0.000000, , , 
09437, , 9.646479, -1.527825, -0.959675, 0.060621, 0.067492, 0.000648, 0.026773, -0.030070, -0.006084, -0.972900, -0.232910, -0.096924, 0.096466, -0.015280, -0.009584, 1.000000, 0.000134, -0.000150, -0.000030, -120.124142, -79.782357, -177.184096, , , 0.000000, , , 
09438, , 9.699348, -1.513157, -0.893377, 0.007817, 0.012400, 0.044538, 0.016985, -0.029131, -0.009334, -0.972900, -0.235107, -0.099121, 0.096994, -0.015135, -0.008921, 1.000000, 0.000085, -0.000146, -0.000047, -120.208970, -79.778471, -177.088028, , , 0.000000, , , 
09439, , 9.701094, -1.547063, -0.898390, 0.037469, -0.000885, 0.051913, 0.030308, -0.019084, -0.004029, -0.972900, -0.235107, -0.103271, 0.097011, -0.015471, -0.008977, 1.000000, 0.000152, -0.000095, -0.000020, -120.254755, -79.766554, -177.018377, , , 0.000000, , , 
09440, , 9.749538, -1.495137, -0.870137, -0.030154, -0.003879, 0.089087, 0.017956, -0.019647, 0.002680, -0.968506, -0.235107, -0.094727, 0.097496, -0.014949, -0.008693, 1.000000, 0.000090, -0.000098, 0.000013, -120.293955, -79.759410, -176.968088, , , 0.000000, , , 
09441, , 9.699829, -1.639831, -0.838040, 0.089284, -0.099474, 0.059504, 0.022653, -0.012738, -0.001450, -0.975098, -0.235107, -0.107422, 0.096999, -0.016398, -0.008376, 1.000000, 0.000113, -0.000064, -0.000007, -120.322113, -79.751844, -176.922337, , , 0.000000, , , 
09442, , 9.656288, -1.480422, -0.907835, -0.012018, 0.035429, -0.001555, 0.024549, -0.014397, 0.007100, -0.972900, -0.230957, -0.099121, 0.096564, -0.014800, -0.009073, 1.000000, 0.000123, -0.000072, 0.000036, -120.336243, -79.744046, -176.893671, , , 0.000000, , , 
09443, , 9.679568, -1.516762, -0.884578, 0.003183, -0.001457, 0.024846, 0.026081, -0.006701, 0.004935, -0.968506, -0.230713, -0.101318, 0.096796, -0.015164, -0.008845, 1.000000, 0.000130, -0.000034, 0.000025, -120.301489, -79.734186, -176.917287, , , 0.000000, , , 
09444, , 9.693975, -1.477129, -0.939097, -0.010277, 0.065022, 0.037827, 0.021764, -0.006985, 0.002793, -0.972900, -0.235107, -0.092773, 0.096940, -0.014769, -0.009389, 1.000000, 0.000109, -0.000035, 0.000014, -120.303525, -79.730676, -176.902547, , , 0.000000, , , 
09445, , 9.684033, -1.494107, -0.954078, 0.011512, 0.070580, 0.032007, 0.017548, 0.000247, 0.001469, -0.972900, -0.230957, -0.094971, 0.096840, -0.014940, -0.009542, 1.000000, 0.000088, 0.000001, 0.000007, -120.296092, -79.722959, -176.895072, , , 0.000000, , , 
09446, , 9.643407, -1.495700, -0.965360, 0.025020, 0.080871, -0.006711, 0.010334, 0.004999, 0.004503, -0.968506, -0.237305, -0.101074, 0.096434, -0.014954, -0.009657, 1.000000, 0.000052, 0.000025, 0.000023, -120.269515, -79.722037, -176.916053, , , 0.000000, , , 
09447, , 9.617160, -1.518565, -0.922269, 0.029576, 0.032957, -0.032891, 0.007717, 0.009140, 0.002588, -0.970703, -0.232910, -0.096924, 0.096171, -0.015184, -0.009228, 1.000000, 0.000039, 0.000046, 0.000013, -120.245120, -79.718645, -176.932968, , , 0.000000, , , 
09448, , 9.652383, -1.572128, -0.885510, 0.053834, -0.023677, 0.006720, 0.003126, 0.007178, 0.002390, -0.970703, -0.232910, -0.099121, 0.096524, -0.015720, -0.008859, 1.000000, 0.000016, 0.000036, 0.000012, -120.220329, -79.719399, -176.956319, , , 0.000000, , , 
09449, , 9.684851, -1.464813, -0.905963, -0.037729, 0.044073, 0.023949, 0.005844, 0.010554, 0.005118, -0.964111, -0.232910, -0.103271, 0.096848, -0.014645, -0.009065, 1.000000, 0.000029, 0.000053, 0.000026, -120.185869, -79.713797, -176.985101, , , 0.000000, , , 
09450, , 9.701138, -1.520562, -0.853467, -0.014840, -0.026929, 0.043866, -0.009181, 0.019765, -0.001952, -0.975098, -0.235107, -0.101074, 0.097010, -0.015207, -0.008544, 1.000000, -0.000046, 0.000099, -0.000010, -120.140821, -79.720301, -177.036198, , , 0.000000, , , 
09451, , 10.355668, -1.190704, -0.252253, -0.688830, -0.411832, 0.583329, -0.161427, 0.091420, 0.021193, -0.972900, -0.235107, -0.105469, 0.103557, -0.011898, -0.002560, 1.000000, -0.000807, 0.000457, 0.000106, -119.939689, -79.735359, -177.336643, , , 0.000000, , , 
09452, , 9.597399, -1.297287, -0.504160, -0.345098, -0.222172, -0.123583, -0.564236, 0.175340, 0.053320, -0.972900, -0.230713, -0.101318, 0.095973, -0.012962, -0.005089, 0.999996, -0.002821, 0.000877, 0.000267, -119.697524, -79.758709, -177.911244, , , 0.000000, , , 
09453, , 9.601489, -1.714301, -0.877438, 0.189183, -0.079498, -0.022120, -0.501336, 0.093241, 0.048334, -0.973145, -0.228760, -0.105469, 0.096015, -0.017142, -0.008776, 0.999997, -0.002507, 0.000466, 0.000242, -119.634081, -79.761452, -178.266165, , , 0.000000, , , 
09454, , 9.704807, -1.470850, -0.150677, -0.377922, -0.606796, -0.021959, -0.898610, 0.132468, 0.071132, -0.970703, -0.228516, -0.111816, 0.097052, -0.014681, -0.001505, 0.999990, -0.004493, 0.000662, 0.000356, -119.672487, -79.763495, -178.750311, , , 0.000000, , , 
09455, , 9.531538, -1.680377, -0.251708, -0.122455, -0.618295, -0.151427, -1.063092, 0.109269, 0.017454, -0.968506, -0.228516, -0.114014, 0.095315, -0.016809, -0.002480, 0.999986, -0.005315, 0.000546, 0.000087, -119.914342, -79.785389, -179.121454, , , 0.000000, , , 
09456, , 8.404787, -1.534222, -0.881615, 0.255556, -0.009081, -1.227463, -1.516074, 0.080990, -0.073862, -0.973145, -0.226318, -0.120361, 0.084039, -0.015440, -0.008733, 0.999971, -0.007580, 0.000405, -0.000369, -120.679075, -79.845225, -179.227013, , , 0.000000, , , 
09457, , 8.667726, -2.305080, -1.254787, 1.057578, -0.104362, -0.818922, -1.345959, -0.074202, -0.121819, -0.977539, -0.228760, -0.118164, 0.086668, -0.023187, -0.012360, 0.999977, -0.006730, -0.000371, -0.000609, -121.804265, -79.885223, -178.864885, , , 0.000000, , , 
09458, , 8.894447, -2.104886, -0.963808, 0.707145, -0.297119, -0.653966, -1.005484, -0.137104, -0.175597, -0.970703, -0.228516, -0.120361, 0.088932, -0.021175, -0.009471, 0.999987, -0.005027, -0.000686, -0.000878, -123.056033, -79.927932, -178.178587, , , 0.000000, , , 
09459, , 9.406902, -1.555343, -0.702263, 0.024574, -0.278471, -0.256339, -0.921218, -0.197294, -0.187731, -0.977295, -0.235107, -0.122314, 0.094061, -0.015674, -0.006858, 0.999988, -0.004606, -0.000986, -0.000939, -124.414868, -79.948388, -177.327002, , , 0.000000, , , 
09460, , 9.419752, -1.435262, -0.979638, 0.069399, -0.022645, -0.234280, -0.818995, -0.259259, -0.212275, -0.972900, -0.235107, -0.120117, 0.094195, -0.014492, -0.009615, 0.999990, -0.004095, -0.001296, -0.001061, -125.965525, -79.962098, -176.228738, , , 0.000000, , , 
09461, , 9.829256, -1.468730, -1.312560, 0.206078, 0.188693, 0.208089, -0.766578, -0.291636, -0.234589, -0.972900, -0.232910, -0.120361, 0.098294, -0.014852, -0.012926, 0.999991, -0.003833, -0.001458, -0.001173, -127.589857, -79.970503, -175.016849, , , 0.000000, , , 
09462, , 9.835783, -1.201575, -1.280725, -0.026433, 0.255506, 0.175329, -0.573459, -0.307762, -0.269124, -0.972900, -0.235107, -0.115967, 0.098361, -0.012184, -0.012621, 0.999994, -0.002867, -0.001539, -0.001346, -129.243025, -79.981770, -173.671675, , , 0.000000, , , 
09463, , 9.931405, -1.315513, -1.238062, 0.037507, 0.105357, 0.281044, -0.547782, -0.311575, -0.318614, -0.970703, -0.237305, -0.115967, 0.099312, -0.013347, -0.012190, 0.999994, -0.002739, -0.001558, -0.001593, -130.969350, -80.002329, -172.231240, , , 0.000000, , , 
09464, , 9.699840, -0.898521, -1.299986, -0.220512, 0.339507, 0.006685, -0.434130, -0.314187, -0.358950, -0.968262, -0.243896, -0.113770, 0.097002, -0.009187, -0.012828, 0.999995, -0.002171, -0.001571, -0.001795, -132.760962, -80.035390, -170.664605, , , 0.000000, , , 
09465, , 9.640342, -1.143668, -0.900355, -0.211282, -0.182141, -0.067089, -0.594317, -0.375086, -0.383478, -0.963867, -0.241699, -0.115967, 0.096398, -0.011648, -0.008788, 0.999992, -0.002972, -0.001875, -0.001917, -134.847377, -80.045735, -168.885985, , , 0.000000, , , 
09466, , 9.676077, -1.552453, -1.313362, 0.353938, -0.129557, 0.067550, -0.584149, -0.391502, -0.361784, -0.963623, -0.245850, -0.111572, 0.096758, -0.015737, -0.012898, 0.999992, -0.002921, -0.001958, -0.001809, -136.919943, -80.029077, -167.121441, , , 0.000000, , , 
09467, , 9.658859, -1.005362, -1.656223, 0.107245, 0.402661, 0.029744, -0.447516, -0.391019, -0.346976, -0.965820, -0.248047, -0.109375, 0.096603, -0.010258, -0.016351, 0.999994, -0.002238, -0.001955, -0.001735, -138.832732, -80.000608, -165.437978, , , 0.000000, , , 
09468, , 9.722091, -1.011657, -1.945904, 0.270965, 0.577091, 0.133282, -0.455881, -0.384170, -0.321650, -0.965576, -0.259033, -0.102783, 0.097242, -0.010317, -0.019249, 0.999994, -0.002279, -0.001921, -0.001608, -140.695959, -79.951794, -163.811065, , , 0.000000, , , 
09469, , 9.819994, -1.099653, -1.864780, 0.288874, 0.399741, 0.230989, -0.349941, -0.371681, -0.292365, -0.968018, -0.254639, -0.103027, 0.098218, -0.011172, -0.018446, 0.999996, -0.001750, -0.001858, -0.001462, -142.401176, -79.891044, -162.278215, , , 0.000000, , , 
09470, , 10.005274, -1.555278, -1.798693, 0.595678, 0.024049, 0.453962, -0.243882, -0.347992, -0.254440, -0.970215, -0.259033, -0.100830, 0.100064, -0.015702, -0.017794, 0.999997, -0.001219, -0.001740, -0.001272, -143.863601, -79.819253, -160.934446, , , 0.000000, , , 
09471, , 9.867535, -1.116186, -1.974248, 0.361381, 0.383363, 0.298400, -0.071984, -0.304127, -0.225728, -0.961182, -0.263428, -0.104736, 0.098693, -0.011280, -0.019588, 0.999998, -0.000360, -0.001521, -0.001129, -145.048328, -79.749579, -159.771900, , , 0.000000, , , 
09472, , 10.021858, -0.891651, -1.671773, -0.015884, 0.218232, 0.384347, -0.005823, -0.302612, -0.192272, -0.963623, -0.256836, -0.094482, 0.100235, -0.009013, -0.016566, 0.999998, -0.000029, -0.001513, -0.000961, -146.094666, -79.669161, -158.711775, , , 0.000000, , , 
09473, , 9.863069, -0.585240, -1.398759, -0.392670, 0.150159, 0.157386, 0.085339, -0.246703, -0.147256, -0.965576, -0.263428, -0.090088, 0.098644, -0.005919, -0.013868, 0.999999, 0.000427, -0.001234, -0.000736, -146.856635, -79.600815, -157.890947, , , 0.000000, , , 
09474, , 9.607736, -0.217070, -1.443921, -0.627674, 0.390031, -0.122771, 0.081488, -0.224616, -0.117782, -0.961182, -0.263428, -0.094238, 0.096092, -0.002221, -0.014332, 0.999999, 0.000407, -0.001123, -0.000589, -147.499408, -79.529706, -157.189838, , , 0.000000, , , 
09475, , 9.874389, -0.566942, -1.271637, -0.488125, 0.006492, 0.147418, 0.030493, -0.226898, -0.083544, -0.961182, -0.263428, -0.090088, 0.098756, -0.005709, -0.012605, 0.999999, 0.000152, -0.001134, -0.000418, -148.095933, -79.446764, -156.567501, , , 0.000000, , , 
09476, , 9.840856, -0.786343, -1.251082, -0.321759, -0.154100, 0.132095, 0.077929, -0.198961, -0.059347, -0.961182, -0.265625, -0.085693, 0.098419, -0.007888, -0.012416, 0.999999, 0.000390, -0.000995, -0.000297, -148.529194, -79.368179, -156.081258, , , 0.000000, , , 
09477, , 9.648133, -0.512074, -1.361276, -0.458508, 0.089469, -0.066740, 0.118372, -0.195809, -0.037419, -0.965576, -0.263428, -0.085938, 0.096494, -0.005131, -0.013521, 0.999999, 0.000592, -0.000979, -0.000187, -148.890740, -79.288264, -155.646404, , , 0.000000, , , 
09478, , 9.523051, -0.645987, -1.146914, -0.455793, -0.168816, -0.211389, 0.034185, -0.196142, -0.017969, -0.963379, -0.265625, -0.079346, 0.095241, -0.006466, -0.011377, 1.000000, 0.000171, -0.000981, -0.000090, -149.224970, -79.197826, -155.286221, , , 0.000000, , , 
09479, , 9.594023, -0.947134, -1.372124, -0.107612, -0.178469, -0.077103, 0.004653, -0.208886, 0.000533, -0.958984, -0.265625, -0.081543, 0.095955, -0.009471, -0.013621, 0.999999, 0.000023, -0.001044, 0.000003, -149.553972, -79.097834, -154.950390, , , 0.000000, , , 
09480, , 9.454555, -0.959039, -1.551352, 0.012948, -0.043614, -0.183931, 0.049752, -0.213642, 0.008698, -0.960938, -0.270020, -0.072998, 0.094562, -0.009582, -0.015415, 0.999999, 0.000249, -0.001068, 0.000043, -149.825587, -78.990346, -154.644666, , , 0.000000, , , 
09481, , 9.540902, -1.039220, -1.193334, -0.145002, -0.406315, -0.151079, 0.038991, -0.223499, 0.005560, -0.963379, -0.263428, -0.077393, 0.095423, -0.010387, -0.011829, 0.999999, 0.000195, -0.001117, 0.000028, -150.171091, -78.884612, -154.267603, , , 0.000000, , , 
09482, , 9.536647, -1.073187, -1.075595, -0.194926, -0.537852, -0.172721, 0.075735, -0.229266, 0.024007, -0.967773, -0.263428, -0.073242, 0.095380, -0.010716, -0.010651, 0.999999, 0.000379, -0.001146, 0.000120, -150.400612, -78.764483, -153.989370, , , 0.000000, , , 
09483, , 9.466257, -1.041129, -1.123532, -0.196922, -0.488927, -0.237802, 0.076437, -0.233595, 0.037152, -0.963379, -0.267822, -0.072998, 0.094678, -0.010389, -0.011129, 0.999999, 0.000382, -0.001168, 0.000186, -150.578984, -78.643835, -153.764296, , , 0.000000, , , 
09484, , 9.464816, -0.989028, -1.162447, -0.234581, -0.442672, -0.238704, 0.094990, -0.248677, 0.052390, -0.961182, -0.265625, -0.068848, 0.094665, -0.009860, -0.011511, 0.999999, 0.000475, -0.001243, 0.000262, -150.744096, -78.505757, -153.540295, , , 0.000000, , , 
09485, , 9.452989, -0.980704, -1.413060, -0.118524, -0.245578, -0.208360, 0.141829, -0.246705, 0.069735, -0.965576, -0.267822, -0.072998, 0.094551, -0.009764, -0.014021, 0.999999, 0.000709, -0.001234, 0.000349, -150.845062, -78.377218, -153.352626, , , 0.000000, , , 
09486, , 9.490601, -0.867821, -1.647297, -0.110056, -0.005850, -0.141802, 0.195220, -0.242442, 0.079196, -0.967773, -0.265625, -0.060547, 0.094929, -0.008625, -0.016366, 0.999999, 0.000976, -0.001212, 0.000396, -150.872384, -78.234765, -153.210484, , , 0.000000, , , 
09487, , 9.567887, -0.695287, -1.743667, -0.231770, 0.152484, -0.066342, 0.182290, -0.240265, 0.077994, -0.968018, -0.259277, -0.058350, 0.095702, -0.006900, -0.017328, 0.999999, 0.000911, -0.001201, 0.000390, -150.909880, -78.108975, -153.064928, , , 0.000000, , , 
09488, , 9.519024, -0.672432, -1.767464, -0.249146, 0.175785, -0.112436, 0.168045, -0.256131, 0.053641, -0.968018, -0.259277, -0.054199, 0.095215, -0.006684, -0.017558, 0.999999, 0.000840, -0.001281, 0.000268, -151.026940, -77.966872, -152.846848, , , 0.000000, , , 
09489, , 9.394191, -0.749806, -1.759432, -0.187083, 0.121988, -0.228393, 0.117271, -0.280169, 0.051826, -0.969971, -0.267822, -0.052002, 0.093968, -0.007463, -0.017467, 0.999999, 0.000586, -0.001401, 0.000259, -151.182246, -77.813845, -152.617068, , , 0.000000, , , 
09490, , 9.385557, -1.048906, -1.585037, -0.054490, -0.207785, -0.239025, 0.096985, -0.320938, 0.045826, -0.968018, -0.257080, -0.043701, 0.093883, -0.010460, -0.015705, 0.999999, 0.000485, -0.001605, 0.000229, -151.430417, -77.641020, -152.306227, , , 0.000000, , , 
09491, , 9.358117, -1.170624, -1.416789, -0.060696, -0.433764, -0.285879, 0.093476, -0.332770, 0.048144, -0.963379, -0.263428, -0.045654, 0.093607, -0.011677, -0.014018, 0.999998, 0.000467, -0.001664, 0.000241, -151.700963, -77.462020, -151.969657, , , 0.000000, , , 
09492, , 9.485011, -0.804788, -1.814141, -0.196727, 0.063029, -0.124475, 0.131001, -0.346453, 0.075541, -0.972412, -0.259277, -0.045654, 0.094884, -0.008000, -0.017982, 0.999998, 0.000655, -0.001732, 0.000378, -151.878333, -77.267667, -151.710942, , , 0.000000, , , 
09493, , 9.478013, -1.150205, -2.019197, 0.171553, 0.017124, -0.055485, 0.111284, -0.401356, 0.099384, -0.961426, -0.257080, -0.041504, 0.094826, -0.011444, -0.020008, 0.999998, 0.000556, -0.002007, 0.000497, -152.072674, -77.049360, -151.444523, , , 0.000000, , , 
09494, , 9.330795, -1.530911, -1.872960, 0.405463, -0.322284, -0.187355, 0.259559, -0.393265, 0.098454, -0.970215, -0.257080, -0.035156, 0.093352, -0.015239, -0.018566, 0.999997, 0.001298, -0.001966, 0.000492, -152.167156, -76.824910, -151.194851, , , 0.000000, , , 
09495, , 9.226112, -1.704761, -2.443701, 0.840857, 0.047665, -0.154033, 0.389859, -0.376836, 0.116872, -0.963623, -0.254883, -0.031006, 0.092317, -0.016946, -0.024296, 0.999996, 0.001949, -0.001884, 0.000584, -152.103458, -76.613150, -151.029008, , , 0.000000, , , 
09496, , 9.508133, -1.134272, -2.680989, 0.400776, 0.516688, 0.109568, 0.538445, -0.345271, 0.140586, -0.974854, -0.254883, -0.031006, 0.095135, -0.011204, -0.026676, 0.999995, 0.002692, -0.001726, 0.000703, -151.889383, -76.401840, -150.931904, , , 0.000000, , , 
09497, , 9.852306, -1.056718, -3.025751, 0.406383, 0.800451, 0.508832, 0.511426, -0.311845, 0.146843, -0.970459, -0.254883, -0.022705, 0.098578, -0.010418, -0.030131, 0.999995, 0.002557, -0.001559, 0.000734, -151.609393, -76.214280, -150.919039, , , 0.000000, , , 
09498, , 9.995945, -0.747909, -2.838717, -0.015127, 0.791625, 0.575266, 0.510269, -0.261470, 0.144341, -0.970459, -0.252686, -0.024658, 0.100002, -0.007335, -0.028275, 0.999996, 0.002551, -0.001307, 0.000722, -151.315948, -76.044443, -150.920194, , , 0.000000, , , 
09499, , 10.089628, -0.299255, -2.282141, -0.726485, 0.556388, 0.495604, 0.392894, -0.218023, 0.155404, -0.968018, -0.254883, -0.014160, 0.100923, -0.002869, -0.022717, 0.999997, 0.001964, -0.001090, 0.000777, -151.007510, -75.902593, -151.010072, , , 0.000000, , , 
09500, , 10.099986, -0.661153, -2.089485, -0.554585, 0.194751, 0.505608, 0.226781, -0.208848, 0.166534, -0.970459, -0.246338, -0.014404, 0.101027, -0.006504, -0.020797, 0.999998, 0.001134, -0.001044, 0.000833, -150.780935, -75.753056, -151.109822, , , 0.000000, , , 
09501, , 9.916661, -1.154144, -2.088068, -0.131806, -0.055042, 0.385928, 0.157163, -0.232484, 0.175621, -0.972900, -0.246338, -0.010010, 0.099201, -0.011438, -0.020774, 0.999999, 0.000786, -0.001162, 0.000878, -150.613621, -75.593857, -151.192510, , , 0.000000, , , 
09502, , 9.757116, -1.766558, -1.705687, 0.195165, -0.692318, 0.222946, 0.123182, -0.251493, 0.145260, -0.972656, -0.248535, -0.005859, 0.097605, -0.017584, -0.016945, 0.999999, 0.000616, -0.001257, 0.000726, -150.539320, -75.428956, -151.196448, , , 0.000000, , , 
09503, , 9.638973, -2.035484, -1.619662, 0.379437, -0.904398, 0.122822, 0.183814, -0.253152, 0.099239, -0.970459, -0.250732, -0.005859, 0.096420, -0.020292, -0.016093, 0.999999, 0.000919, -0.001266, 0.000496, -150.520481, -75.278678, -151.108358, , , 0.000000, , , 
09504, , 9.628434, -1.583109, -1.675559, 0.010595, -0.627801, 0.067909, 0.204290, -0.249233, 0.057991, -0.972900, -0.244141, -0.003906, 0.096310, -0.015786, -0.016652, 0.999999, 0.001021, -0.001246, 0.000290, -150.562593, -75.139522, -150.943844, , , 0.000000, , , 
09505, , 9.723029, -0.758218, -1.997532, -0.559222, 0.052975, 0.126464, 0.115522, -0.271765, 0.037607, -0.972900, -0.244141, 0.000488, 0.097259, -0.007552, -0.019848, 0.999999, 0.000578, -0.001359, 0.000188, -150.711222, -75.005139, -150.722236, , , 0.000000, , , 
09506, , 9.717337, -0.422929, -2.534530, -0.589600, 0.660149, 0.199598, -0.101255, -0.277704, 0.021850, -0.972900, -0.241943, 0.002441, 0.097209, -0.004231, -0.025208, 0.999999, -0.000506, -0.001389, 0.000109, -151.019161, -74.861692, -150.463540, , , 0.000000, , , 
09507, , 9.685654, -1.027227, -2.313363, -0.196994, 0.132020, 0.195430, -0.307865, -0.284420, -0.015881, -0.975098, -0.244141, 0.002441, 0.096888, -0.010315, -0.022980, 0.999998, -0.001539, -0.001422, -0.000079, -151.495647, -74.730485, -150.153058, , , 0.000000, , , 
09508, , 9.429685, -1.743474, -1.999745, 0.296054, -0.512368, -0.034786, -0.351689, -0.309609, -0.058877, -0.972900, -0.246338, 0.002686, 0.094322, -0.017497, -0.019821, 0.999997, -0.001758, -0.001548, -0.000294, -152.113682, -74.591742, -149.721287, , , 0.000000, , , 
09509, , 9.024972, -2.058547, -1.983721, 0.637553, -0.677187, -0.391558, -0.317426, -0.350974, -0.095031, -0.970459, -0.250732, 0.009033, 0.090274, -0.020660, -0.019646, 0.999997, -0.001587, -0.001755, -0.000475, -152.787349, -74.453406, -149.213520, , , 0.000000, , , 
09510, , 8.921891, -1.940062, -1.852207, 0.488721, -0.750329, -0.539465, -0.261805, -0.399307, -0.125101, -0.970459, -0.248535, 0.013184, 0.089243, -0.019481, -0.018318, 0.999997, -0.001309, -0.001997, -0.000626, -153.537559, -74.283397, -148.590448, , , 0.000000, , , 
09511, , 9.057575, -2.219320, -2.140542, 0.828953, -0.725934, -0.308339, -0.217964, -0.429686, -0.165083, -0.970459, -0.250732, 0.017578, 0.090603, -0.022291, -0.021187, 0.999997, -0.001090, -0.002148, -0.000825, -154.350110, -74.114329, -147.875083, , , 0.000000, , , 
09512, , 9.139100, -1.788441, -2.273463, 0.513165, -0.442444, -0.250731, -0.131294, -0.446851, -0.213911, -0.968262, -0.250732, 0.017578, 0.091422, -0.017997, -0.022519, 0.999997, -0.000656, -0.002234, -0.001070, -155.196589, -73.936794, -147.073051, , , 0.000000, , , 
09513, , 9.221987, -1.273899, -2.450646, 0.153184, -0.077809, -0.187523, -0.193047, -0.442335, -0.243178, -0.963867, -0.255127, 0.021729, 0.092258, -0.012875, -0.024290, 0.999996, -0.000965, -0.002212, -0.001216, -156.085306, -73.772339, -146.259524, , , 0.000000, , , 
09514, , 9.153143, -1.434960, -2.531924, 0.344074, -0.141383, -0.215233, -0.253708, -0.463412, -0.263562, -0.968262, -0.257324, 0.023926, 0.091571, -0.014502, -0.025089, 0.999996, -0.001269, -0.002317, -0.001318, -157.067346, -73.590623, -145.387948, , , 0.000000, , , 
09515, , 9.079492, -1.379065, -2.631866, 0.366992, -0.071238, -0.266710, -0.242820, -0.478293, -0.274845, -0.963623, -0.261475, 0.028320, 0.090838, -0.013947, -0.026085, 0.999995, -0.001214, -0.002391, -0.001374, -158.032938, -73.411449, -144.524063, , , 0.000000, , , 
09516, , 9.134305, -1.281639, -2.637858, 0.276873, -0.079912, -0.223470, -0.222392, -0.498158, -0.287237, -0.965820, -0.263672, 0.032471, 0.091390, -0.012977, -0.026137, 0.999995, -0.001112, -0.002491, -0.001436, -159.022664, -73.208069, -143.624086, , , 0.000000, , , 
09517, , 9.324887, -1.046216, -2.252892, -0.156979, -0.355559, -0.170475, -0.205038, -0.506433, -0.290912, -0.963379, -0.268066, 0.038818, 0.093290, -0.010621, -0.022282, 0.999995, -0.001025, -0.002532, -0.001455, -159.975673, -73.009002, -142.749758, , , 0.000000, , , 
09518, , 9.416659, -1.237610, -2.640156, 0.175408, -0.221668, 0.041009, -0.194730, -0.539869, -0.278986, -0.958984, -0.268066, 0.041016, 0.094220, -0.012533, -0.026135, 0.999995, -0.000974, -0.002699, -0.001395, -160.916203, -72.773121, -141.882703, , , 0.000000, , , 
09519, , 9.537666, -0.683814, -2.535495, -0.367950, -0.085251, 0.072677, -0.153034, -0.557559, -0.281122, -0.961182, -0.272461, 0.053711, 0.095437, -0.006992, -0.025084, 0.999995, -0.000765, -0.002788, -0.001406, -161.809830, -72.534699, -141.035924, , , 0.000000, , , 
09520, , 9.497929, -1.153550, -2.817868, 0.169517, -0.172364, 0.158416, -0.204138, -0.579145, -0.281380, -0.963379, -0.274658, 0.055908, 0.095044, -0.011698, -0.027892, 0.999994, -0.001021, -0.002896, -0.001407, -162.733027, -72.269909, -140.190420, , , 0.000000, , , 
09521, , 9.449828, -0.317877, -3.074892, -0.386135, 0.441696, 0.112568, -0.084722, -0.571162, -0.308966, -0.954346, -0.276855, 0.055908, 0.094580, -0.003338, -0.030478, 0.999995, -0.000424, -0.002856, -0.001545, -163.593765, -72.010083, -139.331331, , , 0.000000, , , 
09522, , 9.430000, -0.850778, -2.573233, -0.198447, -0.321580, -0.008247, -0.279420, -0.596325, -0.299315, -0.956543, -0.283447, 0.062500, 0.094363, -0.008685, -0.025439, 0.999993, -0.001397, -0.002982, -0.001497, -164.547620, -71.730743, -138.496415, , , 0.000000, , , 
09523, , 9.462745, -1.540799, -3.093426, 0.629216, -0.361283, 0.235198, -0.225222, -0.607506, -0.334365, -0.958740, -0.285645, 0.071045, 0.094695, -0.015601, -0.030629, 0.999993, -0.001126, -0.003038, -0.001672, -165.505876, -71.458879, -137.621410, , , 0.000000, , , 
09524, , 9.376431, -0.406418, -2.607235, -0.538379, -0.176443, -0.088548, -0.159339, -0.622677, -0.377102, -0.958740, -0.285645, 0.077393, 0.093837, -0.004262, -0.025777, 0.999993, -0.000797, -0.003113, -0.001886, -166.476311, -71.167246, -136.693683, , , 0.000000, , , 
09525, , 9.372214, -1.111444, -2.588820, 0.034995, -0.658572, -0.048457, -0.334540, -0.703671, -0.366426, -0.954102, -0.294189, 0.079590, 0.093792, -0.011329, -0.025539, 0.999991, -0.001673, -0.003518, -0.001832, -167.510518, -70.826470, -135.796781, , , 0.000000, , , 
09526, , 9.514900, -0.845059, -2.949387, -0.038037, -0.340744, 0.178715, -0.231521, -0.753731, -0.414008, -0.951660, -0.300781, 0.083984, 0.095241, -0.008682, -0.029125, 0.999990, -0.001158, -0.003769, -0.002070, -168.562489, -70.455344, -134.822711, , , 0.000000, , , 
09527, , 9.502481, -0.867785, -2.499961, -0.247273, -0.798888, 0.015835, -0.294217, -0.825750, -0.446820, -0.951660, -0.300781, 0.092285, 0.095107, -0.008927, -0.024594, 0.999988, -0.001471, -0.004129, -0.002234, -169.693573, -70.054552, -133.800404, , , 0.000000, , , 
09528, , 9.698240, -1.202201, -2.981143, 0.223809, -0.754721, 0.373956, -0.290445, -0.894336, -0.464494, -0.944824, -0.307373, 0.101074, 0.097086, -0.012290, -0.029360, 0.999986, -0.001452, -0.004472, -0.002322, -170.814377, -69.596809, -132.784008, , , 0.000000, , , 
09529, , 9.709650, -0.791988, -3.189504, -0.013725, -0.470805, 0.427165, -0.275960, -0.907456, -0.541958, -0.942627, -0.313721, 0.103271, 0.097218, -0.008227, -0.031443, 0.999985, -0.001380, -0.004537, -0.002710, -171.991320, -69.142891, -131.690597, , , 0.000000, , , 
09530, , 9.743130, -0.766189, -3.249761, -0.011705, -0.532956, 0.472799, -0.282967, -0.943035, -0.594662, -0.942383, -0.318115, 0.113770, 0.097560, -0.007997, -0.032027, 0.999983, -0.001415, -0.004715, -0.002973, -173.213871, -68.653163, -130.554355, , , 0.000000, , , 
09531, , 9.658219, -0.500508, -3.509677, -0.073814, -0.274131, 0.471656, -0.231440, -0.960731, -0.632377, -0.933350, -0.329102, 0.120361, 0.096733, -0.005351, -0.034626, 0.999983, -0.001157, -0.004804, -0.003162, -174.411162, -68.167072, -129.407916, , , 0.000000, , , 
09532, , 9.653652, -1.013888, -3.406243, 0.302419, -0.765711, 0.441303, -0.305264, -1.006301, -0.674115, -0.928955, -0.329102, 0.133057, 0.096671, -0.010516, -0.033560, 0.999980, -0.001526, -0.005031, -0.003371, -175.661278, -67.628379, -128.247875, , , 0.000000, , , 
09533, , 9.942387, -1.162479, -4.100388, 0.720110, -0.530409, 0.967580, -0.269255, -1.015749, -0.699293, -0.924072, -0.342041, 0.141846, 0.099589, -0.012028, -0.040482, 0.999980, -0.001346, -0.005079, -0.003496, -176.882028, -67.090179, -127.089436, , , 0.000000, , , 
09534, , 10.238534, -0.528877, -3.705483, -0.065830, -0.708261, 1.065281, -0.349665, -1.028474, -0.757053, -0.924072, -0.348633, 0.152588, 0.102553, -0.005741, -0.036518, 0.999978, -0.001748, -0.005142, -0.003785, -178.158430, -66.522514, -125.919250, , , 0.000000, , , 
09535, , 10.602899, 0.109681, -3.455204, -0.787079, -0.806646, 1.282343, -0.455663, -1.045542, -0.855877, -0.915039, -0.352783, 0.156738, 0.106211, 0.000565, -0.033999, 0.999975, -0.002278, -0.005228, -0.004279, -179.582560, -65.941584, -124.644204, , , 0.000000, , , 
09536, , 10.880345, -0.492548, -2.865048, -0.628136, -1.849201, 1.278581, -0.838138, -1.110503, -0.927846, -0.908203, -0.363770, 0.159180, 0.108935, -0.005549, -0.028023, 0.999965, -0.004191, -0.005552, -0.004639, 178.768553, -65.303718, -123.361660, , , 0.000000, , , 
09537, , 10.949707, -0.617293, -3.448869, -0.202995, -1.688777, 1.557245, -0.779030, -1.221463, -1.014058, -0.905762, -0.372314, 0.169922, 0.109671, -0.006861, -0.033793, 0.999961, -0.003895, -0.006107, -0.005070, 177.123522, -64.604564, -122.030096, , , 0.000000, , , 
09538, , 10.927606, 0.704641, -1.997331, -2.006732, -2.199211, 0.912578, -0.923873, -1.384272, -1.159024, -0.894287, -0.387451, 0.176514, 0.109449, 0.006322, -0.019246, 0.999949, -0.004619, -0.006921, -0.005795, 175.326467, -63.771518, -120.622463, , , 0.000000, , , 
09539, , 11.000305, 0.188752, -3.098133, -0.977830, -1.939470, 1.408623, -1.090108, -1.571520, -1.303898, -0.898438, -0.402832, 0.187500, 0.110250, 0.001004, -0.030123, 0.999933, -0.005450, -0.007857, -0.006519, 173.386454, -62.829312, -119.140218, , , 0.000000, , , 
09540, , 11.322044, 0.063509, -3.045840, -0.926992, -2.435477, 1.618513, -1.133031, -1.694051, -1.471359, -0.875977, -0.417969, 0.196045, 0.113473, -0.000368, -0.029498, 0.999921, -0.005665, -0.008470, -0.007357, 171.385237, -61.757519, -117.613761, , , 0.000000, , , 
09541, , 12.683516, -0.204445, -3.404119, -0.755900, -3.198570, 2.903052, -1.021021, -1.779103, -1.568071, -0.868896, -0.430908, 0.208984, 0.127109, -0.003210, -0.032897, 0.999917, -0.005105, -0.008895, -0.007840, 169.472045, -60.636771, -116.092169, , , 0.000000, , , 
09542, , 13.338284, 0.401241, -2.925769, -1.589665, -3.786280, 3.216457, -0.904670, -1.726998, -1.609022, -0.857422, -0.446045, 0.217773, 0.133655, 0.002809, -0.028119, 0.999920, -0.004523, -0.008635, -0.008045, 167.718446, -59.486396, -114.667446, , , 0.000000, , , 
09543, , 13.362547, 1.135840, -2.533663, -2.339630, -3.952511, 3.038840, -1.147593, -1.790924, -1.558895, -0.841553, -0.463379, 0.228760, 0.133928, 0.010174, -0.024199, 0.999913, -0.005738, -0.008954, -0.007794, 165.988859, -58.323776, -113.398817, , , 0.000000, , , 
09544, , 13.212746, 1.138132, -2.533045, -2.256106, -4.198303, 2.819137, -1.434865, -1.869919, -1.537621, -0.830078, -0.476318, 0.235352, 0.132438, 0.010188, -0.024169, 0.999901, -0.007174, -0.009349, -0.007688, 164.249578, -57.063886, -112.314495, , , 0.000000, , , 
09545, , 14.359832, 0.332339, -2.228355, -1.960151, -5.763764, 3.386006, -1.614642, -1.981482, -1.526377, -0.820801, -0.493652, 0.246094, 0.143829, 0.002054, -0.020879, 0.999889, -0.008073, -0.009907, -0.007632, 162.521985, -55.771408, -111.331396, , , 0.000000, , , 
09546, , 14.657203, 0.031788, -1.724811, -2.029488, -6.754726, 3.150801, -1.522957, -1.952395, -1.575968, -0.807129, -0.508789, 0.246582, 0.146727, -0.000962, -0.015812, 0.999892, -0.007615, -0.009762, -0.007880, 160.917672, -54.427676, -110.440102, , , 0.000000, , , 
09547, , 15.317126, -0.302059, -1.033269, -2.253592, -8.062642, 3.058759, -1.521026, -2.032467, -1.631082, -0.793457, -0.528320, 0.255371, 0.153234, -0.004341, -0.008746, 0.999886, -0.007605, -0.010162, -0.008155, 159.361819, -53.082147, -109.563865, , , 0.000000, , , 
09548, , 15.746246, -1.222766, -0.357387, -1.990302, -9.585818, 2.584963, -1.559171, -2.089053, -1.683835, -0.779785, -0.545654, 0.268311, 0.157377, -0.013572, -0.001827, 0.999880, -0.007796, -0.010445, -0.008419, 157.864327, -51.617434, -108.801810, , , 0.000000, , , 
09549, , 15.764049, -1.869444, 0.388175, -1.905510, -10.722837, 1.742520, -1.536303, -2.171360, -1.755290, -0.754883, -0.564941, 0.275146, 0.157413, -0.020037, 0.005742, 0.999873, -0.007681, -0.010856, -0.008776, 156.407254, -50.163663, -108.023805, , , 0.000000, , , 
09550, , 16.317797, -2.879629, 1.647271, -1.994067, -12.662783, 0.814241, -1.662987, -2.307345, -1.888001, -0.743164, -0.584473, 0.279785, 0.162691, -0.030185, 0.018599, 0.999854, -0.008315, -0.011536, -0.009440, 154.935567, -48.514945, -107.340965, , , 0.000000, , , 
09551, , 17.332904, -4.123977, 0.281006, -0.405906, -13.644379, 1.639504, -1.702877, -2.408436, -1.897975, -0.720703, -0.601562, 0.286377, 0.172874, -0.042844, 0.005254, 0.999846, -0.008514, -0.012042, -0.009489, 153.501395, -46.891413, -106.674193, , , 0.000000, , , 
09552, , 17.240557, -3.436030, -0.120118, -0.700035, -13.385778, 1.560762, -1.557257, -2.687819, -2.043900, -0.698242, -0.612305, 0.292969, 0.172035, -0.036116, 0.001389, 0.999827, -0.007786, -0.013438, -0.010219, 152.252392, -44.988244, -106.179053, , , 0.000000, , , 
09553, , 18.190694, -4.713983, -2.025264, 1.249237, -14.268825, 2.516964, -1.760985, -2.892469, -2.009715, -0.677490, -0.638184, 0.293457, 0.181683, -0.049127, -0.017197, 0.999806, -0.008804, -0.014461, -0.010048, 150.995377, -43.104682, -105.741415, , , 0.000000, , , 
09554, , 18.356602, -5.675790, -1.782571, 1.674064, -15.506189, 1.547715, -2.132176, -3.202468, -1.842210, -0.654785, -0.659912, 0.310791, 0.183279, -0.058612, -0.014271, 0.999773, -0.010660, -0.016011, -0.009210, 149.759187, -40.989203, -105.721232, , , 0.000000, , , 
09555, , 20.260049, -5.639722, -1.310776, 0.869731, -17.503335, 1.884014, -1.670363, -3.043819, -2.029275, -0.634521, -0.672852, 0.317383, 0.202177, -0.058540, -0.009546, 0.999798, -0.008351, -0.015218, -0.010146, 148.673279, -39.038549, -105.428605, , , 0.000000, , , 
09556, , 19.237398, -5.630315, -3.438717, 2.385881, -16.367796, 2.017838, -1.011287, -2.577282, -2.276923, -0.601074, -0.685547, 0.323975, 0.192134, -0.058656, -0.031617, 0.999839, -0.005056, -0.012886, -0.011384, 147.828804, -37.097524, -105.000522, , , 0.000000, , , 
09557, , 18.056039, -5.462543, -3.643788, 2.737221, -15.628958, 1.020235, -0.118594, -2.092963, -2.375635, -0.578369, -0.700684, 0.338867, 0.180262, -0.056789, -0.034517, 0.999875, -0.000593, -0.010464, -0.011878, 147.385366, -35.520005, -104.188304, , , 0.000000, , , 
09558, , 15.786937, -3.230367, -5.476768, 2.782553, -12.377976, 1.531215, 0.464830, -1.989238, -2.251129, -0.553711, -0.711426, 0.354004, 0.158028, -0.033957, -0.053274, 0.999884, 0.002324, -0.009946, -0.011255, 147.321100, -33.865660, -103.609347, , , 0.000000, , , 
09559, , 14.797778, 0.362240, -7.343432, 1.517041, -9.458175, 3.650640, 1.475552, -1.852725, -2.122005, -0.538330, -0.707031, 0.377197, 0.148681, 0.002582, -0.072038, 0.999874, 0.007377, -0.009263, -0.010610, 147.887857, -32.488541, -102.857070, , , 0.000000, , , 
09560, , 12.076459, 4.184550, -10.541076, 0.965149, -4.714379, 6.039602, 2.125537, -1.751006, -2.040576, -0.509277, -0.715576, 0.396240, 0.122105, 0.041714, -0.103902, 0.999853, 0.010627, -0.008755, -0.010202, 148.811497, -31.022282, -102.299945, , , 0.000000, , , 
09561, , 12.946883, 2.381167, -6.271182, -0.423498, -7.871473, 2.453996, 0.791513, -1.470233, -1.915918, -0.489014, -0.726074, 0.405029, 0.130146, 0.022812, -0.061665, 0.999919, 0.003957, -0.007351, -0.009579, 149.006869, -29.921950, -101.513915, , , 0.000000, , , 
09562, , 11.718979, -1.315474, -3.591621, 1.163740, -9.422942, -1.950378, 0.815164, -0.834585, -1.569375, -0.480225, -0.721924, 0.419678, 0.117231, -0.013929, -0.035483, 0.999952, 0.004076, -0.004173, -0.007847, 149.172825, -29.051181, -100.904203, , , 0.000000, , , 
09563, , 9.038712, -1.542094, -2.268092, 1.116888, -7.672119, -4.417229, 0.941560, -0.366879, -1.294036, -0.471191, -0.723877, 0.428223, 0.090327, -0.015899, -0.022589, 0.999966, 0.004708, -0.001834, -0.006470, 149.448170, -28.684953, -100.090341, , , 0.000000, , , 
09564, , 7.905875, -2.125243, -2.929432, 2.205248, -6.723125, -4.759252, 1.117988, 0.060335, -1.076500, -0.462402, -0.723877, 0.434570, 0.078935, -0.021513, -0.029438, 0.999970, 0.005590, 0.000302, -0.005382, 149.786172, -28.404342, -99.459138, , , 0.000000, , , 
09565, , 6.232013, -0.349224, -2.728743, 0.958528, -4.626055, -4.904874, 1.192934, 0.584769, -0.793778, -0.458008, -0.721680, 0.440674, 0.062226, -0.003576, -0.027491, 0.999970, 0.005965, 0.002924, -0.003969, 150.198705, -28.668906, -98.620905, , , 0.000000, , , 
09566, , 4.056338, -0.013245, -3.193402, 1.255536, -2.423994, -5.430964, 0.968648, 1.030103, -0.524450, -0.464600, -0.721680, 0.442871, 0.040398, -0.000083, -0.032143, 0.999972, 0.004843, 0.005150, -0.002622, 150.445300, -29.034577, -97.983613, , , 0.000000, , , 
09567, , 2.871969, 0.213062, -3.012357, 1.134346, -1.312107, -6.023329, 0.749840, 1.416434, -0.244534, -0.462646, -0.717285, 0.442871, 0.028508, 0.002209, -0.030318, 0.999967, 0.003749, 0.007082, -0.001223, 150.609433, -29.870634, -97.182409, , , 0.000000, , , 
09568, , 2.296925, -0.017063, -3.308348, 1.559350, -0.722353, -6.170237, 0.768931, 1.830979, 0.016058, -0.478271, -0.713135, 0.440674, 0.022665, -0.000041, -0.033292, 0.999951, 0.003845, 0.009155, 0.000080, 150.750458, -30.791600, -96.590865, , , 0.000000, , , 
09569, , 2.612192, 0.094677, -2.786099, 1.168663, -1.057763, -6.332808, 0.741874, 2.217183, 0.265415, -0.491699, -0.706787, 0.432129, 0.025810, 0.001085, -0.028144, 0.999931, 0.003709, 0.011086, 0.001327, 150.903572, -32.166168, -95.815382, , , 0.000000, , , 
09570, , 3.067012, -0.485231, -2.657231, 1.567189, -1.599995, -6.394245, 0.707576, 2.631137, 0.519191, -0.514160, -0.698242, 0.423340, 0.030329, -0.004678, -0.026990, 0.999904, 0.003538, 0.013155, 0.002596, 150.999809, -33.630376, -95.247536, , , 0.000000, , , 
09571, , 3.290809, -0.557149, -2.371413, 1.486559, -1.809169, -6.454255, 0.826798, 2.985685, 0.789630, -0.527588, -0.687500, 0.416748, 0.032570, -0.005343, -0.024224, 0.999872, 0.004134, 0.014928, 0.003948, 151.199716, -35.536436, -94.548152, , , 0.000000, , , 
09572, , 3.584981, -0.064770, -2.417748, 1.091121, -1.724235, -6.000046, 0.891551, 3.333905, 1.038265, -0.550049, -0.683105, 0.410400, 0.035442, -0.000353, -0.024773, 0.999838, 0.004458, 0.016669, 0.005191, 151.413584, -37.499642, -94.050268, , , 0.000000, , , 
09573, , 3.757595, 0.072306, -2.238748, 0.894958, -1.736187, -5.898740, 0.779375, 3.628092, 1.282694, -0.576904, -0.672607, 0.380615, 0.037156, 0.001051, -0.023060, 0.999807, 0.003897, 0.018139, 0.006413, 151.605346, -39.860388, -93.421735, , , 0.000000, , , 
09574, , 3.922461, 0.014766, -1.809830, 0.735886, -1.952077, -6.030293, 0.737616, 3.860985, 1.531611, -0.603760, -0.666260, 0.372070, 0.038863, 0.000515, -0.018849, 0.999778, 0.003688, 0.019303, 0.007657, 151.782556, -42.226239, -93.048915, , , 0.000000, , , 
09575, , 4.506799, 0.111602, -2.370530, 0.931324, -1.825949, -5.150360, 0.703579, 4.068108, 1.768984, -0.628418, -0.651123, 0.356934, 0.044561, 0.001597, -0.024610, 0.999748, 0.003518, 0.020339, 0.008844, 152.008643, -44.940395, -92.595465, , , 0.000000, , , 
09576, , 5.080173, 0.731526, -2.349774, 0.374030, -1.779171, -4.469155, 0.760106, 4.293396, 1.975414, -0.659912, -0.638184, 0.331543, 0.050206, 0.007905, -0.024551, 0.999714, 0.003800, 0.021465, 0.009876, 152.283086, -47.646305, -92.373371, , , 0.000000, , , 
09577, , 5.616334, 0.772390, -2.906980, 0.606629, -1.467227, -3.643322, 0.638867, 4.484768, 2.151673, -0.689209, -0.618896, 0.307861, 0.055405, 0.008418, -0.030292, 0.999686, 0.003194, 0.022421, 0.010757, 152.555757, -50.668653, -92.038548, , , 0.000000, , , 
09578, , 5.971445, 0.440586, -3.527034, 1.187104, -1.068332, -3.050261, 0.714895, 4.696899, 2.359376, -0.722900, -0.597412, 0.280029, 0.058806, 0.005233, -0.036641, 0.999648, 0.003574, 0.023482, 0.011795, 152.918743, -53.682348, -91.980045, , , 0.000000, , , 
09579, , 6.461217, -0.010589, -3.698740, 1.643946, -1.008723, -2.622809, 0.724312, 4.777244, 2.588341, -0.752197, -0.580078, 0.250000, 0.063697, 0.000860, -0.038514, 0.999624, 0.003621, 0.023883, 0.012940, 153.486431, -56.964823, -91.965486, , , 0.000000, , , 
09580, , 7.377753, -0.217201, -3.752227, 1.804950, -1.121938, -1.811263, 0.814336, 4.871119, 2.832210, -0.777100, -0.562744, 0.215820, 0.072854, -0.000978, -0.039310, 0.999595, 0.004071, 0.024352, 0.014159, 154.320856, -60.187523, -92.396729, , , 0.000000, , , 
09581, , 8.198365, -0.381119, -3.335341, 1.695465, -1.401963, -1.232450, 0.845350, 4.941239, 3.066001, -0.806641, -0.530273, 0.187744, 0.081170, -0.002416, -0.035378, 0.999568, 0.004226, 0.024703, 0.015328, 155.571879, -63.660430, -93.063870, , , 0.000000, , , 
09582, , 9.317772, -0.452539, -3.279390, 1.639305, -1.424465, -0.167305, 0.976920, 5.067040, 3.262439, -0.833984, -0.502197, 0.155518, 0.092362, -0.002846, -0.035158, 0.999534, 0.004884, 0.025331, 0.016310, 157.328991, -67.071600, -94.380744, , , 0.000000, , , 
09583, , 10.188170, 0.101405, -3.264169, 1.023987, -0.877953, 0.798913, 1.087121, 5.253681, 3.400390, -0.858887, -0.476074, 0.108643, 0.100939, 0.002923, -0.035289, 0.999496, 0.005435, 0.026264, 0.016999, 159.883944, -70.742445, -96.235067, , , 0.000000, , , 
09584, , 10.807688, 0.236566, -3.969755, 1.079742, 0.278382, 1.647265, 1.049650, 5.393374, 3.540484, -0.886230, -0.441406, 0.072021, 0.106888, 0.004484, -0.042571, 0.999466, 0.005247, 0.026962, 0.017699, 163.508647, -74.317855, -99.403020, , , 0.000000, , , 
09585, , 12.140414, 0.121925, -4.632761, 1.266917, 1.286727, 3.053648, 1.133457, 5.520471, 3.676937, -0.902344, -0.411133, 0.029053, 0.120011, 0.003710, -0.049637, 0.999434, 0.005666, 0.027597, 0.018381, 169.687898, -78.036295, -104.889646, , , 0.000000, , , 
09586, , 13.023834, 0.009200, -5.464198, 1.499142, 2.700334, 3.966230, 1.274544, 5.649545, 3.831964, -0.923096, -0.382812, -0.011719, 0.128588, 0.002930, -0.058278, 0.999397, 0.006371, 0.028242, 0.019156, -178.922905, -81.458768, -115.715646, , , 0.000000, , , 
09587, , 14.059522, 0.452594, -6.720093, 1.311594, 4.905742, 4.923202, 1.441716, 5.720739, 3.928207, -0.937256, -0.339355, -0.063232, 0.138466, 0.007763, -0.071134, 0.999372, 0.007207, 0.028598, 0.019637, -153.411519, -84.272333, -140.360412, , , 0.000000, , , 
09588, , 14.848606, 1.594558, -7.904053, 0.418344, 7.438923, 5.348609, 1.658253, 5.698243, 3.919442, -0.944580, -0.308838, -0.105957, 0.145798, 0.019498, -0.083069, 0.999368, 0.008290, 0.028485, 0.019593, -110.320712, -84.821076, 177.324884, , , 0.000000, , , 
09589, , 16.101780, 2.705335, -8.902028, -0.667376, 9.885718, 5.920037, 1.742485, 5.596838, 3.839013, -0.956299, -0.278320, -0.151123, 0.157879, 0.030904, -0.093210, 0.999386, 0.008711, 0.027978, 0.019191, -77.245215, -82.700508, 145.278810, , , 0.000000, , , 
09590, , 17.196844, 3.885591, -10.023205, -1.777539, 12.487032, 6.063394, 1.748099, 5.519254, 3.638938, -0.954590, -0.245605, -0.198242, 0.168367, 0.042843, -0.104549, 0.999416, 0.008739, 0.027591, 0.018191, -61.807639, -79.617643, 130.676620, , , 0.000000, , , 
09591, , 17.280773, 5.524854, -11.826852, -3.017534, 15.720923, 4.768456, 1.659685, 5.338100, 3.275245, -0.955078, -0.221680, -0.240967, 0.168632, 0.059037, -0.122328, 0.999475, 0.008297, 0.026686, 0.016373, -53.238810, -76.299782, 123.094298, , , 0.000000, , , 
09592, , 17.235321, 5.993488, -14.087607, -2.924881, 18.761154, 3.254613, 1.357911, 4.883629, 2.858514, -0.948975, -0.197510, -0.279541, 0.167963, 0.063330, -0.144591, 0.999577, 0.006789, 0.024415, 0.014291, -48.281298, -73.258641, 118.764730, , , 0.000000, , , 
09593, , 16.793959, 5.862521, -16.452972, -2.215475, 21.419540, 1.290212, 1.113099, 4.330292, 2.451308, -0.944824, -0.179932, -0.319824, 0.163588, 0.061576, -0.167766, 0.999675, 0.005565, 0.021649, 0.012255, -45.009824, -70.473989, 116.181144, , , 0.000000, , , 
09594, , 14.140008, 6.207376, -18.320920, -1.672357, 22.840099, -2.771969, 0.858768, 3.711892, 2.013102, -0.936279, -0.164551, -0.352051, 0.137332, 0.064263, -0.185510, 0.999768, 0.004294, 0.018558, 0.010065, -42.798878, -68.140320, 114.344212, , , 0.000000, , , 
09595, , 10.568948, 5.847754, -20.006159, -0.357378, 23.234993, -7.342189, 0.518424, 2.867388, 1.582747, -0.929932, -0.151367, -0.371338, 0.102339, 0.059817, -0.201391, 0.999863, 0.002592, 0.014336, 0.007913, -41.456310, -66.280767, 113.324843, , , 0.000000, , , 
09596, , 7.771459, 5.450687, -20.564988, 0.613984, 22.627741, -10.595249, 0.193866, 1.874652, 1.247382, -0.925537, -0.140381, -0.386230, 0.075440, 0.055182, -0.206311, 0.999936, 0.000969, 0.009373, 0.006237, -40.958229, -65.000385, 112.900125, , , 0.000000, , , 
09597, , 5.908521, 5.530277, -20.126019, 0.674492, 21.510493, -12.531183, 0.015656, 0.879383, 0.897650, -0.925781, -0.134033, -0.388428, 0.057950, 0.055580, -0.201512, 0.999980, 0.000078, 0.004397, 0.004488, -41.084046, -64.277445, 113.105370, , , 0.000000, , , 
09598, , 5.805782, 6.532398, -18.284732, -0.834731, 20.077906, -12.437848, -0.336442, -0.029601, 0.498647, -0.930420, -0.125244, -0.390869, 0.057922, 0.065161, -0.182948, 0.999995, -0.001682, -0.000148, 0.002493, -41.732082, -64.099759, 113.611186, , , 0.000000, , , 
09599, , 5.613857, 5.279332, -20.393776, 1.151664, 21.560120, -12.833107, -0.857038, -0.917447, 0.209633, -0.943848, -0.123291, -0.378174, 0.057019, 0.051979, -0.203901, 0.999980, -0.004285, -0.004587, 0.001048, -43.171827, -64.421241, 114.667623, , , 0.000000, , , 
09600, , 6.441654, 11.395093, -17.622090, -5.559992, 21.039012, -12.695515, -0.157312, -2.096733, -0.532629, -0.947998, -0.132080, -0.354736, 0.066563, 0.113637, -0.175620, 0.999941, -0.000787, -0.010483, -0.002663, -44.561672, -65.497720, 116.102181, , , 0.000000, , , 
09601, , 20.141877, 6.158451, 12.979202, -13.927719, -2.626977, 10.465000, -3.035757, -2.417896, -1.173405, -0.952637, -0.123535, -0.348633, 0.200202, 0.062393, 0.131274, 0.999795, -0.015178, -0.012089, -0.005867, -47.552855, -66.979184, 117.433461, , , 0.000000, , , 
09602, , 22.592184, -15.817498, 12.910981, 5.041613, -8.896173, 18.866644, -6.532742, -1.951398, -0.797823, -0.957275, -0.116943, -0.329590, 0.223993, -0.154695, 0.136393, 0.999411, -0.032657, -0.009755, -0.003988, -52.646451, -68.046364, 118.895066, , , 0.000000, , , 
09603, , 10.304163, -13.519961, -14.318762, 16.081564, 11.383629, 0.471467, 3.878498, -1.949135, -1.287969, -0.958740, -0.154053, -0.299316, 0.103586, -0.133068, -0.144774, 0.999744, 0.019391, -0.009745, -0.006439, -51.548310, -69.342731, 120.072197, , , 0.000000, , , 
09604, , 15.299316, 6.987609, -5.969131, -6.830251, 11.999955, 1.493456, 2.399621, -3.271398, -1.635398, -0.967529, -0.162842, -0.269531, 0.154501, 0.069306, -0.056338, 0.999761, 0.011997, -0.016356, -0.008176, -52.681495, -71.233342, 122.736188, , , 0.000000, , , 
09605, , 21.165141, -2.824965, -7.761703, 1.705614, 11.638870, 9.623768, 0.743223, -2.935976, -1.606445, -0.971680, -0.184814, -0.241699, 0.212527, -0.029673, -0.074610, 0.999853, 0.003716, -0.014679, -0.008032, -54.854771, -73.006809, 125.419613, , , 0.000000, , , 
09606, , 12.206932, 0.361414, -1.319608, -1.924775, 4.084518, 1.610291, 2.938950, -2.245702, -1.534399, -0.973389, -0.200195, -0.209717, 0.122231, 0.002857, -0.011778, 0.999800, 0.014694, -0.011228, -0.007671, -55.031778, -74.465578, 127.358060, , , 0.000000, , , 
09607, , 8.221460, 3.123303, -3.418926, -3.205707, 5.702844, -3.013416, 2.054596, -2.490572, -1.247370, -0.975342, -0.215332, -0.184082, 0.082823, 0.031060, -0.032841, 0.999850, 0.010272, -0.012452, -0.006237, -56.940921, -75.896997, 130.491105, , , 0.000000, , , 
09608, , 7.980419, 2.064514, -5.869332, -1.538680, 7.493298, -3.188838, 1.700016, -2.276700, -0.948238, -0.984131, -0.228516, -0.164795, 0.080562, 0.020757, -0.057603, 0.999888, 0.008500, -0.011383, -0.004741, -59.358950, -77.047590, 133.979789, , , 0.000000, , , 
09609, , 10.154082, 0.860253, -3.856780, -1.356411, 5.421169, -0.459279, 1.155437, -2.128285, -0.748747, -0.979492, -0.237305, -0.143311, 0.101975, 0.008440, -0.037435, 0.999920, 0.005777, -0.010641, -0.003744, -62.776640, -78.055726, 138.090511, , , 0.000000, , , 
09610, , 11.360360, 1.544127, -4.427920, -2.096802, 6.097300, 0.650127, 1.398743, -1.703568, -0.605230, -0.979492, -0.239502, -0.117920, 0.114021, 0.015401, -0.043201, 0.999935, 0.006994, -0.008518, -0.003026, -65.499777, -78.794699, 141.688115, , , 0.000000, , , 
09611, , 11.559515, 4.944038, -2.436907, -5.913745, 4.759893, 0.500936, 1.229389, -1.431820, -0.475667, -0.979248, -0.250488, -0.109375, 0.115882, 0.049310, -0.023237, 0.999953, 0.006147, -0.007159, -0.002378, -68.415588, -79.407867, 145.301246, , , 0.000000, , , 
09612, , 11.588989, 3.650573, -1.731190, -4.859790, 3.613092, 0.862251, -0.008469, -1.291936, -0.313660, -0.983643, -0.250488, -0.096680, 0.116056, 0.036323, -0.016564, 0.999978, -0.000042, -0.006460, -0.001568, -71.859822, -79.829972, 148.797754, , , 0.000000, , , 
09613, , 11.383916, 2.586737, -0.976337, -3.979521, 2.485979, 0.921372, -0.418340, -1.145936, -0.197884, -0.977051, -0.252686, -0.088135, 0.113918, 0.025735, -0.009165, 0.999981, -0.002092, -0.005730, -0.000989, -75.796180, -80.162726, 152.474062, , , 0.000000, , , 
09614, , 11.539220, 0.321446, -0.575370, -1.927647, 1.476890, 1.487291, -1.099111, -1.151938, -0.140638, -0.988281, -0.248291, -0.081787, 0.115425, 0.003104, -0.005106, 0.999968, -0.005495, -0.005760, -0.000703, -80.064612, -80.381744, 156.165696, , , 0.000000, , , 
09615, , 10.831112, -2.429583, -1.127056, 0.941238, 1.167000, 1.243374, -1.049037, -1.104957, -0.105965, -0.985840, -0.250488, -0.071289, 0.108358, -0.024410, -0.010544, 0.999971, -0.005245, -0.005525, -0.000530, -84.696052, -80.562249, 160.173702, , , 0.000000, , , 
09616, , 9.832137, -3.558809, -1.559424, 2.268424, 1.116210, 0.452535, -0.664946, -1.049168, -0.093136, -0.983643, -0.257080, -0.062744, 0.098384, -0.035684, -0.014960, 0.999981, -0.003325, -0.005246, -0.000466, -88.659923, -80.653244, 163.805114, , , 0.000000, , , 
09617, , 9.238703, -3.864407, -1.507381, 2.627524, 0.837711, -0.068300, -0.102516, -0.967917, -0.121735, -0.981445, -0.248535, -0.056641, 0.092435, -0.038708, -0.014607, 0.999988, -0.000513, -0.004840, -0.000609, -92.482420, -80.744410, 167.541248, , , 0.000000, , , 
09618, , 9.289819, -3.667041, -1.435363, 2.402645, 0.736631, -0.040667, 0.303185, -0.923204, -0.180479, -0.983643, -0.257080, -0.045898, 0.092930, -0.036733, -0.013980, 0.999988, 0.001516, -0.004616, -0.000902, -95.579336, -80.813818, 170.854513, , , 0.000000, , , 
09619, , 9.525655, -2.858857, -1.494876, 1.605393, 0.922969, 0.072471, 0.679600, -0.834105, -0.234928, -0.981445, -0.259277, -0.035156, 0.095284, -0.028650, -0.014649, 0.999985, 0.003398, -0.004171, -0.001175, -98.631799, -80.904849, 174.262035, , , 0.000000, , , 
09620, , 9.668413, -1.541767, -1.085859, 0.220614, 0.790852, 0.003618, 0.729098, -0.786267, -0.246923, -0.988037, -0.257324, -0.022461, 0.096707, -0.015498, -0.010535, 0.999985, 0.003645, -0.003931, -0.001235, -101.126377, -80.970776, 177.210961, , , 0.000000, , , 
09621, , 9.726462, -0.002168, -1.014737, -1.280011, 1.010992, -0.170450, 0.492788, -0.763443, -0.235619, -0.983643, -0.257324, -0.016113, 0.097302, -0.000112, -0.009776, 0.999989, 0.002464, -0.003817, -0.001178, -104.124221, -81.015622, -179.544160, , , 0.000000, , , 
09622, , 9.761708, 0.458839, -0.773986, -1.783890, 0.807907, -0.207220, -0.100268, -0.806107, -0.205313, -0.983643, -0.261719, -0.007568, 0.097652, 0.004484, -0.007349, 0.999991, -0.000501, -0.004031, -0.001027, -107.174310, -81.008481, -176.514563, , , 0.000000, , , 
09623, , 9.850705, 0.533766, -0.412835, -1.951922, 0.383651, -0.141392, -0.601502, -0.854210, -0.176839, -0.983643, -0.263916, 0.000732, 0.098528, 0.005239, -0.003723, 0.999986, -0.003007, -0.004271, -0.000884, -111.038494, -80.947017, -173.026453, , , 0.000000, , , 
09624, , 9.646226, -0.572583, -0.497823, -0.841096, 0.110614, -0.173968, -1.037621, -0.907786, -0.151655, -0.983398, -0.270264, 0.003174, 0.096479, -0.005823, -0.004510, 0.999976, -0.005188, -0.004539, -0.000758, -114.815007, -80.828934, -169.804076, , , 0.000000, , , 
09625, , 9.527432, -2.061888, -0.425798, 0.578195, -0.451207, -0.083061, -1.129666, -0.958576, -0.163970, -0.981201, -0.266113, 0.011475, 0.095276, -0.020719, -0.003684, 0.999972, -0.005648, -0.004793, -0.000820, -119.108194, -80.661062, -166.183042, , , 0.000000, , , 
09626, , 9.420497, -3.247117, -0.614269, 1.764829, -0.701879, -0.011755, -0.927476, -0.999039, -0.198449, -0.985596, -0.270508, 0.013672, 0.094201, -0.032591, -0.005521, 0.999976, -0.004637, -0.004995, -0.000992, -122.933183, -80.468310, -162.844623, , , 0.000000, , , 
09627, , 9.203494, -2.892614, -1.394493, 1.665645, 0.027270, -0.208519, -0.346832, -1.008899, -0.276656, -0.976807, -0.272461, 0.022217, 0.092063, -0.029077, -0.013430, 0.999985, -0.001734, -0.005044, -0.001383, -126.801782, -80.257485, -159.193886, , , 0.000000, , , 
09628, , 9.449371, -2.363806, -1.235561, 1.086054, -0.095151, -0.054850, 0.009081, -0.998263, -0.366122, -0.978760, -0.279053, 0.034912, 0.094510, -0.023811, -0.011885, 0.999986, 0.000045, -0.004991, -0.001831, -130.125951, -80.070962, -155.815213, , , 0.000000, , , 
09629, , 9.497870, -2.248597, -1.749951, 1.114537, 0.321327, 0.035254, 0.364688, -0.952028, -0.402833, -0.976562, -0.283447, 0.045654, 0.095015, -0.022646, -0.017088, 0.999985, 0.001823, -0.004760, -0.002014, -133.393127, -79.862324, -152.355135, , , 0.000000, , , 
09630, , 9.794979, -0.697745, -1.321785, -0.512065, 0.225171, 0.079830, 0.468402, -0.933710, -0.419613, -0.980957, -0.287842, 0.052002, 0.097995, -0.007153, -0.012777, 0.999984, 0.002342, -0.004669, -0.002098, -136.161987, -79.661274, -149.269152, , , 0.000000, , , 
09631, , 9.765299, -1.143973, -1.228383, -0.094130, -0.090271, 0.094925, 0.065011, -0.972512, -0.400684, -0.969727, -0.287842, 0.064697, 0.097688, -0.011632, -0.011813, 0.999986, 0.000325, -0.004863, -0.002003, -139.343716, -79.380248, -146.063577, , , 0.000000, , , 
09632, , 9.526403, -0.743191, -2.390928, -0.132869, 1.052552, -0.020101, 0.016493, -1.021330, -0.413802, -0.976562, -0.287842, 0.077393, 0.095369, -0.007627, -0.023423, 0.999985, 0.000082, -0.005107, -0.002069, -142.245311, -79.081770, -143.100782, , , 0.000000, , , 
09633, , 9.608807, -0.850843, -2.072704, -0.108613, 0.590650, 0.035532, -0.223724, -1.063628, -0.442854, -0.974121, -0.294434, 0.079590, 0.096177, -0.008744, -0.020206, 0.999983, -0.001119, -0.005318, -0.002214, -145.488330, -78.711357, -139.992945, , , 0.000000, , , 
09634, , 9.376586, -2.366175, -1.945216, 1.360215, -0.037808, -0.042836, -0.388498, -1.157287, -0.500588, -0.967285, -0.305176, 0.088379, 0.093816, -0.023934, -0.018863, 0.999978, -0.001942, -0.005786, -0.002503, -148.672469, -78.315645, -136.971357, , , 0.000000, , , 
09635, , 9.281655, -3.097597, -1.722103, 2.036117, -0.582548, -0.105827, -0.306971, -1.259495, -0.539186, -0.962646, -0.305176, 0.100830, 0.092838, -0.031252, -0.016589, 0.999975, -0.001535, -0.006297, -0.002696, -152.008168, -77.810016, -133.808538, , , 0.000000, , , 
09636, , 9.275850, -2.999082, -1.332365, 1.862230, -1.063377, -0.210052, -0.224378, -1.390283, -0.585862, -0.962646, -0.313965, 0.111572, 0.092760, -0.030277, -0.012645, 0.999971, -0.001122, -0.006951, -0.002929, -155.105920, -77.251114, -130.768158, , , 0.000000, , , 
09637, , 9.432895, -1.966628, -2.227574, 1.105855, -0.114915, 0.014364, -0.209786, -1.507451, -0.628397, -0.960205, -0.318359, 0.126465, 0.094431, -0.019986, -0.021543, 0.999966, -0.001049, -0.007537, -0.003142, -158.272321, -76.565238, -127.704843, , , 0.000000, , , 
09638, , 9.940513, -1.319212, -2.168535, 0.421567, -0.247614, 0.434996, -0.298360, -1.574984, -0.640351, -0.951172, -0.331299, 0.137451, 0.099529, -0.013542, -0.020882, 0.999963, -0.001492, -0.007875, -0.003202, -161.128112, -75.850846, -124.940888, , , 0.000000, , , 
09639, , 9.994997, -0.293460, -2.776211, -0.384721, 0.417304, 0.549192, -0.444221, -1.593196, -0.607815, -0.946533, -0.333496, 0.156494, 0.100157, -0.003299, -0.026958, 0.999961, -0.002221, -0.007966, -0.003039, -163.841324, -75.048025, -122.463041, , , 0.000000, , , 
09640, , 9.998574, 0.092184, -3.202214, -0.613863, 0.740585, 0.642252, -0.860528, -1.651735, -0.588534, -0.942139, -0.335693, 0.166992, 0.100248, 0.000492, -0.031198, 0.999952, -0.004303, -0.008259, -0.002943, -166.413121, -74.224439, -120.307881, , , 0.000000, , , 
09641, , 10.812089, -0.251094, -2.764163, -0.483071, -0.166484, 1.338100, -1.217742, -1.687113, -0.566927, -0.935303, -0.344482, 0.175781, 0.108341, -0.002982, -0.026711, 0.999942, -0.006089, -0.008435, -0.002835, -169.004593, -73.310213, -118.395992, , , 0.000000, , , 
09642, , 10.919663, -1.277483, -2.682784, 0.487135, -0.798106, 1.465162, -1.403628, -1.657935, -0.534298, -0.935303, -0.350830, 0.190674, 0.109379, -0.013250, -0.025830, 0.999937, -0.007018, -0.008290, -0.002671, -171.323030, -72.430910, -116.812146, , , 0.000000, , , 
09643, , 10.744877, -1.146319, -2.912038, 0.483790, -0.736104, 1.343745, -1.543033, -1.736154, -0.544954, -0.928223, -0.359619, 0.195068, 0.107663, -0.011976, -0.028095, 0.999929, -0.007715, -0.008681, -0.002725, -173.632509, -71.447246, -115.371866, , , 0.000000, , , 
09644, , 11.698226, 1.333385, -2.366510, -2.112550, -0.907645, 1.974411, -1.551465, -1.814656, -0.675506, -0.923584, -0.374756, 0.201660, 0.117235, 0.012760, -0.022703, 0.999923, -0.007757, -0.009073, -0.003377, -175.920884, -70.451195, -113.892037, , , 0.000000, , , 
09645, , 11.309814, 0.320696, -1.747644, -1.258766, -1.923496, 1.402469, -1.631498, -1.853799, -0.877641, -0.907715, -0.385498, 0.216553, 0.113266, 0.002573, -0.016450, 0.999914, -0.008157, -0.009269, -0.004388, -178.437027, -69.378825, -112.267236, , , 0.000000, , , 
09646, , 11.835056, 0.342438, -1.759078, -1.296159, -2.325631, 1.857166, -1.497523, -1.979155, -0.950878, -0.907471, -0.403076, 0.227539, 0.118531, 0.002735, -0.016441, 0.999912, -0.007487, -0.009895, -0.004754, 179.268765, -68.252655, -110.727744, , , 0.000000, , , 
09647, , 11.859358, 0.403208, -2.548797, -1.027544, -1.908612, 2.128734, -1.370355, -1.999031, -1.137472, -0.893799, -0.409424, 0.238281, 0.118860, 0.003187, -0.024325, 0.999910, -0.006852, -0.009995, -0.005687, 176.934643, -67.051501, -109.108162, , , 0.000000, , , 
09648, , 12.161204, 0.281269, -2.062695, -1.049056, -2.766090, 2.165165, -1.369052, -2.043820, -1.280242, -0.880127, -0.426758, 0.251221, 0.121829, 0.001898, -0.019398, 0.999904, -0.006845, -0.010219, -0.006401, 174.660135, -65.833368, -107.483446, , , 0.000000, , , 
09649, , 12.707931, 0.327170, -2.778418, -0.813340, -2.679278, 2.894324, -1.403693, -2.099154, -1.397328, -0.870850, -0.444092, 0.264160, 0.127380, 0.002194, -0.026466, 0.999896, -0.007018, -0.010495, -0.006986, 172.385286, -64.515808, -105.914382, , , 0.000000, , , 
09650, , 13.423333, -0.403211, -2.359932, -0.280607, -3.945370, 3.235700, -1.403052, -2.200745, -1.560645, -0.854980, -0.459229, 0.277344, 0.134444, -0.005239, -0.022087, 0.999884, -0.007015, -0.011003, -0.007803, 170.163544, -63.136990, -104.335482, , , 0.000000, , , 
09651, , 13.807064, -0.265304, -2.217104, -0.396077, -4.548818, 3.406931, -1.425440, -2.227031, -1.677148, -0.836914, -0.478760, 0.290283, 0.138276, -0.003963, -0.020607, 0.999877, -0.007127, -0.011135, -0.008385, 167.968578, -61.672127, -102.826101, , , 0.000000, , , 
09652, , 13.983861, -0.240810, -1.768814, -0.498615, -5.356403, 3.217272, -1.484862, -2.348417, -1.774041, -0.823242, -0.496094, 0.301270, 0.140004, -0.003773, -0.016020, 0.999864, -0.007424, -0.011742, -0.008870, 165.877461, -60.134354, -101.407634, , , 0.000000, , , 
09653, , 14.540202, -0.503567, -1.427605, -0.341571, -6.401771, 3.324727, -1.639171, -2.442119, -1.840248, -0.807129, -0.513184, 0.310059, 0.145506, -0.006481, -0.012451, 0.999850, -0.008195, -0.012210, -0.009201, 163.811125, -58.482192, -100.135573, , , 0.000000, , , 
09654, , 15.684921, -0.707688, -0.540690, -0.526922, -8.165570, 3.597514, -1.812728, -2.569395, -1.893699, -0.793213, -0.537109, 0.316895, 0.156824, -0.008598, -0.003319, 0.999832, -0.009063, -0.012846, -0.009468, 161.816088, -56.757744, -99.004175, , , 0.000000, , , 
09655, , 18.425316, -1.485029, 0.795926, -0.549666, -11.412004, 4.739404, -1.996623, -2.596935, -1.968486, -0.763916, -0.565186, 0.327881, 0.183970, -0.016566, 0.010509, 0.999817, -0.009983, -0.012984, -0.009842, 159.800817, -54.966056, -97.982176, , , 0.000000, , , 
09656, , 20.028446, -2.833783, 2.537772, -0.191938, -14.602196, 4.410813, -2.344845, -2.632479, -1.996885, -0.743408, -0.580322, 0.334473, 0.199630, -0.030012, 0.028354, 0.999795, -0.011723, -0.013161, -0.009984, 157.732629, -53.148081, -97.088262, , , 0.000000, , , 
09657, , 21.464336, -3.306348, 5.224259, -1.141528, -17.969876, 3.403776, -2.624032, -2.714889, -2.001865, -0.725098, -0.608398, 0.337158, 0.213563, -0.034490, 0.055593, 0.999772, -0.013119, -0.013573, -0.010009, 155.640790, -51.257955, -96.362603, , , 0.000000, , , 
09658, , 20.830110, -3.902823, 4.037608, -0.052527, -17.493660, 2.810548, -3.120667, -2.723248, -2.108854, -0.699951, -0.632080, 0.337646, 0.207298, -0.040552, 0.043828, 0.999730, -0.015602, -0.013615, -0.010543, 153.342054, -49.331400, -95.700100, , , 0.000000, , , 
09659, , 18.951442, -6.835764, 1.440564, 3.854216, -16.382764, 1.351521, -3.222631, -3.069874, -2.363973, -0.672607, -0.660156, 0.336182, 0.188429, -0.070314, 0.018426, 0.999683, -0.016111, -0.015348, -0.011819, 151.052047, -47.152700, -95.103649, , , 0.000000, , , 
09660, , 20.020910, -6.434153, -0.924781, 4.697869, -16.099979, 2.904477, -2.656112, -3.317510, -2.620098, -0.647705, -0.683838, 0.340820, 0.199450, -0.067044, -0.005057, 0.999688, -0.013279, -0.016586, -0.013099, 149.158025, -44.758236, -94.587411, , , 0.000000, , , 
09661, , 22.443869, -9.227701, -1.518170, 7.205178, -19.316776, 3.071864, -3.139225, -3.110168, -2.632436, -0.613770, -0.707520, 0.326416, 0.223381, -0.095408, -0.010221, 0.999669, -0.015694, -0.015549, -0.013161, 147.023328, -42.470820, -94.076609, , , 0.000000, , , 
09662, , 20.299410, -13.073193, -6.127532, 13.071396, -17.645733, 1.941532, -2.823569, -3.263186, -2.402153, -0.586670, -0.733398, 0.333252, 0.202341, -0.133981, -0.056094, 0.999695, -0.014116, -0.016314, -0.012010, 145.310248, -40.152775, -93.933849, , , 0.000000, , , 
09663, , 20.476774, -10.467182, -5.321616, 10.494507, -17.642486, 1.837544, -0.567188, -2.914104, -2.431175, -0.555176, -0.741699, 0.348145, 0.204218, -0.107301, -0.049936, 0.999816, -0.002836, -0.014570, -0.012155, 144.826095, -38.026634, -93.635528, , , 0.000000, , , 
09664, , 18.041416, -6.534150, -3.125999, 6.204655, -15.538296, 0.086385, 0.183571, -2.596869, -2.296221, -0.534912, -0.761230, 0.363281, 0.180035, -0.067383, -0.028982, 0.999849, 0.000918, -0.012984, -0.011481, 144.762748, -36.053564, -93.357157, , , 0.000000, , , 
09665, , 17.188747, -4.103092, -3.780621, 4.775775, -13.895903, 0.706741, 1.013327, -2.293462, -2.090515, -0.505859, -0.765381, 0.395264, 0.171867, -0.042642, -0.036049, 0.999867, 0.005066, -0.011467, -0.010452, 145.194547, -34.340715, -92.994219, , , 0.000000, , , 
09666, , 12.822391, 0.450381, -11.612645, 5.863583, -5.496025, 5.512879, 3.053275, -1.690622, -1.797696, -0.488281, -0.754395, 0.422363, 0.129243, 0.005106, -0.114962, 0.999807, 0.015265, -0.008453, -0.008988, 146.732636, -32.962837, -92.614199, , , 0.000000, , , 
09667, , 10.978813, 2.902023, -6.327455, 0.747214, -5.606744, 1.891714, 1.911728, -1.538908, -1.374218, -0.470459, -0.758789, 0.443604, 0.110468, 0.028860, -0.062150, 0.999901, 0.009558, -0.007694, -0.006871, 147.743264, -31.849368, -92.281851, , , 0.000000, , , 
09668, , 11.506214, 0.327080, -2.248967, 0.589868, -8.753006, -2.028528, 0.958167, -0.829154, -1.014898, -0.463867, -0.756592, 0.449951, 0.115169, 0.002793, -0.021998, 0.999967, 0.004791, -0.004146, -0.005074, 148.141099, -31.139606, -91.993833, , , 0.000000, , , 
09669, , 9.060136, -1.326040, 0.058203, 0.848252, -8.172550, -5.770715, 0.963755, -0.110652, -0.511053, -0.461670, -0.754395, 0.454102, 0.090567, -0.013495, 0.000567, 0.999985, 0.004819, -0.000553, -0.002555, 148.587138, -30.996888, -91.626640, , , 0.000000, , , 
09670, , 8.101117, -0.946047, -0.209965, 0.728138, -7.121058, -5.897663, 1.131341, 0.346004, -0.119726, -0.459717, -0.745605, 0.464600, 0.081002, -0.009496, -0.002293, 0.999982, 0.005657, 0.001730, -0.000599, 149.134659, -31.132732, -91.432708, , , 0.000000, , , 
09671, , 6.527261, 0.942602, -0.694079, -0.563822, -4.994146, -5.486520, 1.124149, 0.960052, 0.163630, -0.470947, -0.743652, 0.466553, 0.065231, 0.009519, -0.007201, 0.999972, 0.005621, 0.004800, 0.000818, 149.680114, -31.732188, -91.085388, , , 0.000000, , , 
09672, , 4.579617, 0.891042, -1.678566, 0.024271, -2.865975, -5.766759, 0.865208, 1.518966, 0.449668, -0.484375, -0.737305, 0.468506, 0.045647, 0.009087, -0.017094, 0.999959, 0.004326, 0.007595, 0.002248, 150.037495, -32.615980, -90.826600, , , 0.000000, , , 
09673, , 2.820759, 0.156540, -1.821027, 0.753018, -1.455650, -6.878251, 0.692156, 1.948821, 0.790215, -0.502441, -0.724365, 0.457764, 0.028022, 0.001740, -0.018478, 0.999939, 0.003461, 0.009744, 0.003951, 150.351824, -33.896242, -90.522428, , , 0.000000, , , 
09674, , 2.327747, -0.595810, -1.841399, 1.414768, -1.182156, -7.411738, 0.718040, 2.328923, 1.170253, -0.527100, -0.718018, 0.453369, 0.023095, -0.005756, -0.018705, 0.999909, 0.003590, 0.011644, 0.005851, 150.709219, -35.389765, -90.428215, , , 0.000000, , , 
09675, , 3.096535, -0.227717, -1.465842, 0.899042, -1.802543, -7.032297, 0.961166, 2.765006, 1.517465, -0.549561, -0.702881, 0.446777, 0.030774, -0.001971, -0.015095, 0.999864, 0.004806, 0.013824, 0.007587, 151.283251, -37.297702, -90.325522, , , 0.000000, , , 
09676, , 3.791318, 0.414204, -1.160764, 0.174457, -2.218678, -6.505389, 0.960598, 3.181598, 1.823683, -0.578857, -0.685791, 0.442139, 0.037682, 0.004544, -0.012187, 0.999820, 0.004803, 0.015907, 0.009118, 151.870106, -39.400358, -90.384836, , , 0.000000, , , 
09677, , 4.498042, 1.232602, -0.979266, -0.649991, -2.467032, -5.787908, 0.938188, 3.595761, 2.085187, -0.607910, -0.675049, 0.418701, 0.044663, 0.012841, -0.010538, 0.999773, 0.004691, 0.017977, 0.010425, 152.536386, -41.882038, -90.425545, , , 0.000000, , , 
09678, , 4.758923, 1.723877, -1.002273, -1.096488, -2.310468, -5.331740, 0.729020, 3.937728, 2.310388, -0.641846, -0.651367, 0.401367, 0.047177, 0.017824, -0.010890, 0.999733, 0.003645, 0.019687, 0.011551, 153.087190, -44.496105, -90.620255, , , 0.000000, , , 
09679, , 4.853372, 1.623177, -1.322580, -0.884206, -1.986958, -4.995645, 0.655852, 4.239546, 2.546915, -0.677734, -0.636230, 0.375732, 0.048027, 0.016891, -0.014193, 0.999689, 0.003279, 0.021196, 0.012733, 153.723154, -47.419380, -90.856733, , , 0.000000, , , 
09680, , 5.038393, 2.120207, -1.077902, -1.470662, -1.854350, -4.769407, 0.577716, 4.427992, 2.770635, -0.713623, -0.619141, 0.354248, 0.049829, 0.021928, -0.011824, 0.999655, 0.002888, 0.022137, 0.013852, 154.413763, -50.397767, -91.333839, , , 0.000000, , , 
09681, , 5.692481, 2.186688, -1.396902, -1.433168, -1.732512, -3.975522, 0.501041, 4.629165, 2.928013, -0.751953, -0.602051, 0.322266, 0.056254, 0.022731, -0.015220, 0.999622, 0.002505, 0.023143, 0.014638, 155.233884, -53.599731, -91.898407, , , 0.000000, , , 
09682, , 6.119172, 2.107018, -1.610447, -1.320503, -1.520738, -3.455857, 0.526409, 4.811400, 3.103178, -0.785889, -0.569580, 0.287842, 0.060445, 0.022057, -0.017508, 0.999587, 0.002632, 0.024054, 0.015514, 156.231842, -56.846469, -92.745854, , , 0.000000, , , 
09683, , 6.709370, 2.221952, -2.192484, -1.238754, -0.961224, -2.581821, 0.630881, 5.011417, 3.224604, -0.822021, -0.541504, 0.255615, 0.066147, 0.023364, -0.023518, 0.999551, 0.003154, 0.025053, 0.016121, 157.562782, -60.290981, -93.781730, , , 0.000000, , , 
09684, , 7.664241, 2.069646, -2.711229, -0.976400, -0.620929, -1.505242, 0.719683, 5.181568, 3.357795, -0.844971, -0.511230, 0.221191, 0.075544, 0.022073, -0.029001, 0.999517, 0.003598, 0.025904, 0.016786, 159.280243, -63.762599, -95.258683, , , 0.000000, , , 
09685, , 8.538018, 1.398621, -3.271423, -0.253985, -0.266258, -0.571946, 0.750012, 5.311799, 3.538482, -0.878662, -0.487305, 0.178467, 0.084206, 0.015611, -0.034905, 0.999484, 0.003749, 0.026554, 0.017689, 161.732779, -67.378846, -97.373474, , , 0.000000, , , 
09686, , 9.917837, 1.228269, -3.336360, -0.250312, -0.169746, 0.716839, 0.881273, 5.465792, 3.715703, -0.903809, -0.454834, 0.129150, 0.097966, 0.014265, -0.035992, 0.999444, 0.004406, 0.027324, 0.018575, 165.257890, -70.991139, -100.602577, , , 0.000000, , , 
09687, , 11.047536, 0.982574, -3.363662, -0.222476, 0.141516, 1.771994, 0.998308, 5.632109, 3.878380, -0.933594, -0.413574, 0.086182, 0.109251, 0.012131, -0.036668, 0.999403, 0.004991, 0.028155, 0.019388, 170.774708, -74.677024, -105.670455, , , 0.000000, , , 
09688, , 12.335637, 0.708394, -3.742377, -0.075765, 0.876224, 3.064828, 1.147921, 5.808721, 4.037039, -0.956543, -0.374512, 0.036865, 0.122022, 0.009785, -0.040930, 0.999358, 0.005738, 0.029037, 0.020181, 179.860579, -78.197018, -114.335022, , , 0.000000, , , 
09689, , 13.439664, 0.837733, -4.773576, -0.078229, 2.616342, 4.229035, 1.369190, 5.923279, 4.151514, -0.970703, -0.337646, -0.014648, 0.132689, 0.011488, -0.051611, 0.999323, 0.006844, 0.029610, 0.020753, -163.346623, -81.296432, -130.492266, , , 0.000000, , , 
09690, , 14.602430, 1.134334, -6.128671, -0.177306, 4.888876, 5.287876, 1.739704, 5.988264, 4.219843, -0.987061, -0.300537, -0.061768, 0.143815, 0.014951, -0.065496, 0.999291, 0.008696, 0.029934, 0.021094, -134.092318, -83.031770, -159.001566, , , 0.000000, , , 
09691, , 15.947130, 2.099917, -6.961073, -1.209212, 7.121723, 6.151358, 1.996754, 6.003857, 4.182208, -0.996826, -0.257080, -0.113525, 0.156796, 0.025022, -0.074109, 0.999281, 0.009981, 0.030012, 0.020906, -99.477878, -82.414025, 167.377845, , , 0.000000, , , 
09692, , 17.159867, 3.169097, -8.374082, -2.154258, 10.033541, 6.592918, 2.012749, 6.013324, 4.025536, -0.999756, -0.222168, -0.166992, 0.168290, 0.035976, -0.088487, 0.999295, 0.010061, 0.030060, 0.020123, -76.486484, -79.944958, 145.290449, , , 0.000000, , , 
09693, , 18.257450, 4.934790, -10.123876, -3.662722, 13.551748, 6.401928, 1.978758, 6.009572, 3.730588, -0.995850, -0.191406, -0.224609, 0.178459, 0.053737, -0.106126, 0.999326, 0.009892, 0.030041, 0.018649, -63.095131, -76.692530, 132.883439, , , 0.000000, , , 
09694, , 19.138791, 5.869794, -12.078416, -4.275519, 16.901045, 5.759654, 1.672526, 5.824106, 3.347356, -0.989746, -0.165283, -0.275879, 0.186744, 0.062888, -0.125754, 0.999401, 0.008361, 0.029115, 0.016733, -55.095132, -73.326402, 125.598105, , , 0.000000, , , 
09695, , 20.315913, 7.083894, -13.936099, -5.220393, 20.229334, 5.034590, 1.355939, 5.383797, 2.983603, -0.981201, -0.143311, -0.318604, 0.198223, 0.074788, -0.144244, 0.999503, 0.006779, 0.026915, 0.014916, -49.993955, -70.055717, 121.119933, , , 0.000000, , , 
09696, , 19.364977, 7.465536, -15.971845, -4.864859, 22.701970, 2.295712, 0.808545, 4.888577, 2.561620, -0.975098, -0.116943, -0.367676, 0.188692, 0.077751, -0.164061, 0.999611, 0.004042, 0.024440, 0.012806, -46.670091, -67.095172, 118.048586, , , 0.000000, , , 
09697, , 15.142893, 5.806896, -17.593601, -2.048381, 22.768645, -2.752343, 0.234223, 4.226471, 2.136024, -0.959961, -0.097168, -0.399658, 0.147035, 0.059863, -0.179005, 0.999719, 0.001171, 0.021130, 0.010679, -44.562459, -64.504979, 115.931128, , , 0.000000, , , 
09698, , 10.782240, 3.896673, -19.842415, 1.372363, 22.781702, -7.759913, 0.068268, 3.337198, 1.810974, -0.953369, -0.088379, -0.427490, 0.104133, 0.039989, -0.200169, 0.999820, 0.000341, 0.016685, 0.009054, -43.350811, -62.406734, 114.621061, , , 0.000000, , , 
09699, , 6.958429, 3.976637, -21.661697, 2.703802, 22.776881, -12.520552, 0.474396, 2.384915, 1.510818, -0.949219, -0.079590, -0.448730, 0.066690, 0.040792, -0.217328, 0.999898, 0.002372, 0.011924, 0.007554, -42.522138, -60.810512, 114.003557, , , 0.000000, , , 
09700, , 4.322231, 7.907769, -21.024035, -0.640136, 21.899901, -16.385093, 0.578861, 1.296234, 1.000242, -0.942627, -0.070801, -0.459473, 0.041461, 0.079897, -0.210282, 0.999962, 0.002894, 0.006481, 0.005001, -42.048054, -59.873862, 113.840089, , , 0.000000, , , 
09701, , 4.105909, 10.337491, -19.971990, -3.224417, 21.389503, -17.208260, 0.035673, 0.143958, 0.364501, -0.940430, -0.070801, -0.455322, 0.040727, 0.103485, -0.199731, 0.999998, 0.000178, 0.000720, 0.001823, -42.205813, -59.681482, 114.034937, , , 0.000000, , , 
09702, , 4.410432, 10.654921, -19.147463, -3.846048, 20.922240, -16.673296, -0.429926, -0.892035, -0.349868, -0.949463, -0.066650, -0.442627, 0.045144, 0.106059, -0.191503, 0.999986, -0.002150, -0.004460, -0.001749, -42.783990, -60.192166, 114.418763, , , 0.000000, , , 
09703, , 6.329171, 4.686618, -17.055325, 0.590975, 18.660320, -11.893584, -1.616389, -1.951435, -0.721731, -0.956055, -0.068848, -0.423584, 0.065119, 0.045256, -0.170294, 0.999913, -0.008082, -0.009757, -0.003609, -44.572504, -61.311006, 115.378360, , , 0.000000, , , 
09704, , 11.307924, 2.432471, -5.882878, -2.347448, 10.503723, -2.564017, -1.158633, -2.555479, -1.320787, -0.971680, -0.071289, -0.398193, 0.113976, 0.023238, -0.057513, 0.999880, -0.005793, -0.012777, -0.006604, -46.190500, -62.876836, 116.458269, , , 0.000000, , , 
09705, , 27.974416, -11.193535, 27.777095, -6.992697, -16.320246, 27.114671, -7.771201, -2.140763, -0.529787, -0.969971, -0.049561, -0.387939, 0.276442, -0.101693, 0.284827, 0.999184, -0.038845, -0.010701, -0.002648, -52.132509, -63.943787, 118.089233, , , 0.000000, , , 
09706, , 11.674484, -22.067963, -4.364142, 18.863296, 0.781965, 7.095767, 0.613488, -1.383022, -1.022288, -0.982666, -0.077881, -0.372559, 0.115916, -0.221140, -0.043516, 0.999958, 0.003067, -0.006915, -0.005111, -52.328621, -64.891514, 118.696685, , , 0.000000, , , 
09707, , 12.920474, 7.529046, -8.399786, -5.933156, 14.376693, -2.585664, 5.180841, -2.711163, -1.788872, -0.986572, -0.102051, -0.344727, 0.130989, 0.076236, -0.080263, 0.999533, 0.025900, -0.013554, -0.008943, -50.680387, -66.686654, 120.108979, , , 0.000000, , , 
09708, , 23.550000, 4.565167, -10.661929, -4.731672, 18.529164, 8.167552, -0.897101, -3.857957, -2.069390, -0.995117, -0.119629, -0.304199, 0.237953, 0.042733, -0.102241, 0.999750, -0.004485, -0.019288, -0.010346, -53.683180, -68.978622, 122.796009, , , 0.000000, , , 
09709, , 23.760083, -2.912423, -7.435938, 0.863807, 12.586282, 11.846022, 2.043710, -3.232499, -2.248864, -1.003418, -0.150146, -0.267578, 0.238423, -0.031066, -0.070821, 0.999754, 0.010218, -0.016161, -0.011243, -54.631446, -71.144561, 125.004057, , , 0.000000, , , 
09710, , 13.400851, 3.404556, -2.331634, -4.775261, 6.462454, 1.677197, 2.227795, -3.131138, -2.077033, -1.002930, -0.171875, -0.233398, 0.134693, 0.032890, -0.020840, 0.999761, 0.011138, -0.015654, -0.010384, -55.805342, -73.145534, 127.578349, , , 0.000000, , , 
09711, , 8.871633, 1.351481, -2.758862, -1.927622, 4.847608, -2.007563, 1.844244, -2.991604, -1.643108, -1.004883, -0.189453, -0.203613, 0.089223, 0.013029, -0.026135, 0.999812, 0.009221, -0.014957, -0.008215, -58.073551, -74.910814, 130.988555, , , 0.000000, , , 
09712, , 5.652717, 2.986162, -5.143065, -2.240487, 6.691805, -5.627515, 1.666229, -2.624920, -1.273401, -1.013428, -0.204834, -0.175781, 0.057384, 0.029921, -0.050432, 0.999859, 0.008331, -0.013124, -0.006367, -60.694736, -76.305477, 134.680191, , , 0.000000, , , 
09713, , 7.405915, 0.978308, -4.880394, -0.778433, 6.048812, -3.299316, 0.743977, -2.546304, -0.996250, -1.008789, -0.213623, -0.150146, 0.074720, 0.009591, -0.047820, 0.999900, 0.003720, -0.012731, -0.004981, -64.879890, -77.520908, 139.364044, , , 0.000000, , , 
09714, , 10.351991, -0.313725, -5.739277, 0.151489, 6.768768, -0.098938, 1.007953, -2.163186, -0.816178, -1.015381, -0.222412, -0.122559, 0.104120, -0.003276, -0.056285, 0.999920, 0.005040, -0.010816, -0.004081, -68.766103, -78.440169, 143.927755, , , 0.000000, , , 
09715, , 11.674658, 4.515767, -3.250070, -5.354160, 5.480059, 0.605969, 1.390648, -1.674529, -0.697247, -1.010742, -0.233398, -0.109619, 0.117168, 0.044970, -0.031208, 0.999935, 0.006953, -0.008372, -0.003486, -72.088355, -79.174943, 148.077004, , , 0.000000, , , 
09716, , 12.000358, 4.014969, -3.110905, -4.980002, 5.046271, 1.120640, 0.112462, -1.455810, -0.560616, -1.010742, -0.237549, -0.099121, 0.120338, 0.039830, -0.030211, 0.999969, 0.000562, -0.007279, -0.002803, -75.823608, -79.716003, 151.942103, , , 0.000000, , , 
09717, , 12.383784, 2.482734, -2.059342, -3.808081, 3.527887, 1.884035, -0.596631, -1.253318, -0.479721, -1.015137, -0.237793, -0.088379, 0.124023, 0.024470, -0.019890, 0.999973, -0.002983, -0.006267, -0.002399, -80.085276, -80.168790, 155.870451, , , 0.000000, , , 
09718, , 12.455764, 0.178746, -1.768679, -1.658024, 2.546501, 2.396746, -1.261224, -1.182234, -0.414874, -1.012695, -0.244141, -0.079834, 0.124663, 0.001420, -0.016960, 0.999960, -0.006306, -0.005911, -0.002074, -84.535190, -80.497443, 159.651417, , , 0.000000, , , 
09719, , 11.703391, -1.222044, -1.391331, -0.272069, 1.615449, 1.922416, -1.380468, -1.114075, -0.419258, -1.010498, -0.248535, -0.075439, 0.117083, -0.012558, -0.013175, 0.999958, -0.006902, -0.005570, -0.002096, -89.453955, -80.799601, 163.779692, , , 0.000000, , , 
09720, , 10.503527, -3.159383, -1.874474, 1.905813, 1.353062, 1.066395, -1.113840, -1.057086, -0.390527, -1.010498, -0.248535, -0.064941, 0.105070, -0.031901, -0.018012, 0.999969, -0.005569, -0.005285, -0.001953, -93.888892, -81.008738, 167.624750, , , 0.000000, , , 
09721, , 9.588983, -2.881433, -1.593494, 1.719905, 0.983039, 0.130399, -0.462956, -0.957078, -0.370377, -1.010498, -0.250732, -0.060791, 0.095911, -0.029028, -0.015409, 0.999984, -0.002315, -0.004785, -0.001852, -98.146054, -81.182801, 171.607665, , , 0.000000, , , 
09722, , 9.214181, -2.624130, -1.621059, 1.551920, 0.973709, -0.270267, -0.066989, -0.869390, -0.379974, -1.012451, -0.257324, -0.045898, 0.092161, -0.026422, -0.015801, 0.999989, -0.000335, -0.004347, -0.001900, -101.591836, -81.315581, 175.055117, , , 0.000000, , , 
09723, , 9.617223, -2.194030, -1.411919, 1.037164, 0.806952, 0.065110, 0.276901, -0.790720, -0.370946, -1.005859, -0.261719, -0.043701, 0.096186, -0.022099, -0.013769, 0.999990, 0.001384, -0.003954, -0.001855, -105.053002, -81.430116, 178.657835, , , 0.000000, , , 
09724, , 9.992846, -0.835447, -1.386792, -0.305770, 1.093005, 0.246613, 0.441322, -0.723016, -0.336999, -1.012451, -0.263916, -0.028809, 0.099964, -0.008493, -0.013525, 0.999990, 0.002207, -0.003615, -0.001685, -107.791407, -81.502245, -178.317533, , , 0.000000, , , 
09725, , 10.244463, 0.154835, -1.125021, -1.346948, 1.029770, 0.354094, 0.227957, -0.720230, -0.313544, -1.010010, -0.266113, -0.022461, 0.102487, 0.001400, -0.010880, 0.999992, 0.001140, -0.003601, -0.001568, -111.072690, -81.539483, -174.926257, , , 0.000000, , , 
09726, , 10.023465, 0.305920, -1.207300, -1.427519, 1.075630, 0.128425, -0.168815, -0.717232, -0.289329, -1.005615, -0.268311, -0.022217, 0.100281, 0.002904, -0.011716, 0.999992, -0.000844, -0.003586, -0.001447, -114.130841, -81.538918, -171.932420, , , 0.000000, , , 
09727, , 9.570227, -0.181517, -0.974525, -0.950371, 0.639357, -0.259709, -0.710942, -0.741804, -0.252808, -1.005615, -0.270508, -0.013916, 0.095735, -0.001970, -0.009383, 0.999986, -0.003555, -0.003709, -0.001264, -117.919705, -81.481879, -168.573894, , , 0.000000, , , 
09728, , 9.302800, -0.968555, -0.649455, -0.248154, 0.028795, -0.440444, -1.087403, -0.768166, -0.234611, -1.014404, -0.279297, -0.011475, 0.093040, -0.009829, -0.006084, 0.999977, -0.005437, -0.003841, -0.001173, -121.509651, -81.385049, -165.573744, , , 0.000000, , , 
09729, , 9.139369, -2.147438, -0.894017, 0.966534, -0.187329, -0.433530, -1.264379, -0.799201, -0.250824, -1.005371, -0.279297, -0.009521, 0.091401, -0.021643, -0.008438, 0.999971, -0.006322, -0.003996, -0.001254, -125.630568, -81.245030, -162.199220, , , 0.000000, , , 
09730, , 9.066509, -2.668190, -1.172958, 1.557530, -0.187971, -0.419371, -1.085429, -0.820832, -0.319709, -1.003174, -0.279297, -0.003174, 0.090669, -0.026889, -0.011212, 0.999976, -0.005427, -0.004104, -0.001599, -129.366764, -81.108854, -159.047929, , , 0.000000, , , 
09731, , 9.231009, -2.839847, -1.058877, 1.671139, -0.480615, -0.253777, -0.750797, -0.849598, -0.415296, -0.998535, -0.290039, 0.007568, 0.092294, -0.028629, -0.010089, 0.999982, -0.003754, -0.004248, -0.002076, -133.453123, -80.952326, -155.411171, , , 0.000000, , , 
09732, , 9.356305, -3.281360, -0.711126, 1.975123, -1.065326, -0.128858, -0.304409, -0.851572, -0.520839, -1.005127, -0.292236, 0.018311, 0.093506, -0.033068, -0.006663, 0.999986, -0.001522, -0.004258, -0.002604, -137.086730, -80.820607, -151.908108, , , 0.000000, , , 
09733, , 9.123960, -2.437323, -1.235965, 1.408032, -0.379619, -0.400598, 0.229540, -0.874754, -0.622056, -0.993896, -0.301025, 0.020508, 0.091216, -0.024643, -0.011989, 0.999985, 0.001148, -0.004374, -0.003110, -140.936717, -80.655715, -147.931843, , , 0.000000, , , 
09734, , 9.028098, -1.071833, -0.797355, 0.032263, -0.426019, -0.696339, 0.457953, -0.912858, -0.724054, -0.995850, -0.311768, 0.029297, 0.090277, -0.011027, -0.007587, 0.999980, 0.002290, -0.004564, -0.003620, -144.572657, -80.495307, -143.980596, , , 0.000000, , , 
09735, , 8.910205, -1.430186, -0.647638, 0.375312, -0.776292, -0.806458, 0.351081, -1.002988, -0.771977, -0.993652, -0.307617, 0.043945, 0.089077, -0.014635, -0.006055, 0.999978, 0.001755, -0.005015, -0.003860, -148.680109, -80.232706, -139.671835, , , 0.000000, , , 
09736, , 8.948123, -1.722007, -1.238864, 0.865066, -0.427006, -0.667361, 0.121082, -1.166589, -0.845582, -0.989014, -0.320557, 0.054688, 0.089478, -0.017591, -0.011877, 0.999974, 0.000605, -0.005833, -0.004228, -152.892064, -79.890408, -135.325788, , , 0.000000, , , 
09737, , 9.326786, -2.426156, -1.359425, 1.563799, -0.724364, -0.234006, -0.016836, -1.291625, -0.954662, -0.986572, -0.333496, 0.069824, 0.093236, -0.024708, -0.012990, 0.999968, -0.000084, -0.006458, -0.004773, -157.539539, -79.415548, -130.672763, , , 0.000000, , , 
09738, , 9.251787, -3.352649, -1.631407, 2.581941, -0.899829, -0.220037, -0.053687, -1.420027, -1.025676, -0.975342, -0.340088, 0.084717, 0.092457, -0.034005, -0.015648, 0.999962, -0.000268, -0.007100, -0.005128, -161.922168, -78.860136, -126.242114, , , 0.000000, , , 
09739, , 9.557299, -1.665934, -2.241153, 1.188937, -0.013774, 0.072841, 0.069317, -1.500629, -1.129113, -0.972900, -0.351074, 0.097656, 0.095642, -0.017192, -0.021700, 0.999956, 0.000347, -0.007503, -0.005645, -166.268950, -78.173005, -121.823481, , , 0.000000, , , 
09740, , 9.827884, -0.647353, -1.559929, 0.050594, -0.550857, 0.143750, -0.022337, -1.552630, -1.184571, -0.961670, -0.359619, 0.112549, 0.098355, -0.007058, -0.014835, 0.999952, -0.000112, -0.007763, -0.005923, -170.208617, -77.444305, -117.806697, , , 0.000000, , , 
09741, , 10.245202, -1.168034, -2.536480, 0.859054, -0.089584, 0.770898, -0.407512, -1.650651, -1.135893, -0.963379, -0.379150, 0.123535, 0.102588, -0.012313, -0.024494, 0.999948, -0.002038, -0.008253, -0.005679, -173.915154, -76.557095, -114.300071, , , 0.000000, , , 
09742, , 11.154689, -0.922470, -2.953883, 0.729034, -0.033416, 1.740078, -0.474216, -1.650867, -1.030331, -0.952148, -0.383545, 0.134277, 0.111736, -0.009869, -0.028594, 0.999950, -0.002371, -0.008254, -0.005152, -176.885783, -75.665292, -111.520573, , , 0.000000, , , 
09743, , 11.003249, 1.638806, -3.728608, -1.384451, 1.296326, 1.765653, -0.578076, -1.680705, -1.009222, -0.947510, -0.394287, 0.146973, 0.110421, 0.015725, -0.036405, 0.999948, -0.002890, -0.008403, -0.005046, -179.595413, -74.679560, -109.120038, , , 0.000000, , , 
09744, , 10.938430, 1.415264, -2.560403, -1.463771, -0.045686, 1.414909, -1.022326, -1.740255, -0.946241, -0.942871, -0.405273, 0.159912, 0.109667, 0.013506, -0.024721, 0.999938, -0.005112, -0.008701, -0.004731, 177.944333, -73.678237, -107.172477, , , 0.000000, , , 
09745, , 9.570069, 1.136647, -2.933737, -0.905654, 0.349177, 0.214224, -1.287777, -1.868255, -0.916800, -0.929199, -0.416016, 0.177002, 0.096020, 0.010741, -0.028512, 0.999925, -0.006439, -0.009341, -0.004584, 175.613830, -72.538674, -105.569314, , , 0.000000, , , 
09746, , 10.183954, 0.739119, -2.691825, -0.599347, -0.402897, 0.721945, -1.524222, -2.025747, -0.971368, -0.917969, -0.426758, 0.185791, 0.102139, 0.006695, -0.025937, 0.999908, -0.007621, -0.010128, -0.004857, 173.371937, -71.333166, -104.130606, , , 0.000000, , , 
09747, , 10.965710, 1.876587, -2.215454, -1.822398, -0.923273, 1.345151, -1.340959, -2.048118, -1.141841, -0.913086, -0.439941, 0.196533, 0.109981, 0.017995, -0.021152, 0.999909, -0.006705, -0.010240, -0.005709, 171.154090, -70.039855, -102.652080, , , 0.000000, , , 
09748, , 11.459556, 0.110638, -2.175529, -0.158144, -2.025066, 1.673523, -1.424268, -2.167324, -1.205737, -0.901855, -0.455078, 0.213867, 0.114826, 0.000266, -0.020516, 0.999898, -0.007121, -0.010836, -0.006028, 169.085348, -68.700838, -101.314457, , , 0.000000, , , 
09749, , 12.313572, 1.203583, -3.301509, -0.748877, -1.276464, 2.906324, -1.261133, -2.185454, -1.250624, -0.896973, -0.468018, 0.226807, 0.123558, 0.011061, -0.031738, 0.999901, -0.006305, -0.010927, -0.006253, 167.223640, -67.287600, -100.143384, , , 0.000000, , , 
09750, , 12.907249, 2.074369, -3.040298, -1.604959, -1.724439, 3.400336, -1.188630, -2.171630, -1.359807, -0.881104, -0.483154, 0.231201, 0.129530, 0.019688, -0.029117, 0.999900, -0.005943, -0.010858, -0.006799, 165.462333, -65.897178, -98.967194, , , 0.000000, , , 
09751, , 13.164301, 0.929236, -3.356258, -0.346346, -2.347623, 3.595663, -1.319464, -2.170595, -1.478193, -0.867432, -0.498291, 0.250488, 0.132060, 0.008102, -0.032187, 0.999892, -0.006597, -0.010853, -0.007391, 163.626303, -64.434468, -97.835698, , , 0.000000, , , 
09752, , 13.498299, -0.059311, -3.305751, 0.631134, -3.273315, 3.678388, -1.247371, -2.204976, -1.631052, -0.847168, -0.513428, 0.259277, 0.135325, -0.001896, -0.031558, 0.999887, -0.006237, -0.011024, -0.008155, 161.855308, -62.953036, -96.658419, , , 0.000000, , , 
09753, , 13.662583, -1.011657, -2.940625, 1.455369, -4.395455, 3.411687, -1.235457, -2.218220, -1.733687, -0.837891, -0.532959, 0.266113, 0.136845, -0.011477, -0.027821, 0.999882, -0.006177, -0.011091, -0.008668, 160.127886, -61.390722, -95.560118, , , 0.000000, , , 
09754, , 14.100206, -0.789626, -2.731938, 1.266144, -5.068393, 3.588611, -1.181013, -2.269395, -1.833193, -0.810791, -0.548096, 0.279053, 0.141218, -0.009345, -0.025665, 0.999876, -0.005905, -0.011347, -0.009166, 158.513684, -59.805340, -94.485118, , , 0.000000, , , 
09755, , 15.334670, -0.869825, -2.351592, 1.249276, -6.432401, 4.275677, -1.297780, -2.336515, -1.907073, -0.801514, -0.569580, 0.290039, 0.153514, -0.010306, -0.021660, 0.999865, -0.006489, -0.011682, -0.009535, 156.913558, -58.119901, -93.539810, , , 0.000000, , , 
09756, , 17.450445, -1.568483, -0.800553, 1.254689, -9.435753, 4.917706, -1.432631, -2.389471, -1.997216, -0.778809, -0.591309, 0.298828, 0.174414, -0.017474, -0.005800, 0.999853, -0.007163, -0.011947, -0.009986, 155.319552, -56.406527, -92.621897, , , 0.000000, , , 
09757, , 19.121945, -2.776034, 1.322938, 1.443099, -12.863357, 4.592981, -1.488981, -2.387458, -2.105306, -0.758301, -0.608643, 0.309814, 0.190736, -0.029659, 0.015724, 0.999846, -0.007445, -0.011937, -0.010526, 153.721515, -54.625643, -91.766287, , , 0.000000, , , 
09758, , 20.543922, -4.035623, 3.257049, 1.725430, -16.027275, 3.936938, -1.634003, -2.565883, -2.164638, -0.733154, -0.638672, 0.314453, 0.204545, -0.042291, 0.035539, 0.999826, -0.008170, -0.012829, -0.010823, 152.184673, -52.753837, -91.022308, , , 0.000000, , , 
09759, , 21.412980, -4.819717, 5.275254, 1.447127, -18.730594, 2.700820, -2.281225, -2.758430, -2.205179, -0.708252, -0.660400, 0.323486, 0.212826, -0.049920, 0.056257, 0.999779, -0.011405, -0.013791, -0.011025, 150.418948, -50.741220, -90.475447, , , 0.000000, , , 
09760, , 21.896635, -6.971015, 4.694909, 3.527427, -19.965956, 1.974618, -2.673206, -2.978478, -2.248415, -0.676758, -0.677490, 0.327881, 0.217428, -0.071495, 0.051143, 0.999737, -0.013365, -0.014891, -0.011241, 148.593153, -48.618295, -90.091219, , , 0.000000, , , 
09761, , 21.064078, -6.131719, 3.249550, 3.478814, -18.667225, 1.642015, -2.479277, -3.108528, -2.447935, -0.649414, -0.703369, 0.322021, 0.209326, -0.063449, 0.036534, 0.999727, -0.012395, -0.015541, -0.012239, 146.903348, -46.351846, -89.742694, , , 0.000000, , , 
09762, , 22.043574, -4.736012, 0.510546, 3.821112, -17.678685, 3.655348, -2.678034, -2.903809, -2.952848, -0.615479, -0.733398, 0.316406, 0.219594, -0.050504, 0.008960, 0.999696, -0.013389, -0.014518, -0.014763, 144.891813, -44.026576, -89.072004, , , 0.000000, , , 
09763, , 21.631181, -9.611782, -3.894424, 10.419857, -17.379492, 3.021187, -3.470909, -2.954426, -2.995192, -0.587891, -0.765869, 0.306396, 0.215361, -0.099967, -0.034045, 0.999628, -0.017352, -0.014770, -0.014974, 142.529567, -41.646043, -88.540304, , , 0.000000, , , 
09764, , 19.989169, -15.562220, -6.899489, 16.937612, -17.532883, -0.070137, -2.789098, -3.449765, -2.628684, -0.556396, -0.785156, 0.306885, 0.198941, -0.159151, -0.063354, 0.999668, -0.013944, -0.017247, -0.013142, 140.961222, -39.162043, -88.588092, , , 0.000000, , , 
09765, , 19.500939, -12.200741, -5.252403, 13.213348, -17.265733, -0.648656, -0.249606, -3.051755, -2.480105, -0.529541, -0.793701, 0.334473, 0.194246, -0.124482, -0.049402, 0.999806, -0.001248, -0.015258, -0.012400, 140.802643, -36.919682, -88.569040, , , 0.000000, , , 
09766, , 17.860479, -1.789699, -4.908925, 4.787359, -12.768415, 2.848955, 1.742108, -2.853958, -2.316346, -0.502930, -0.793457, 0.357666, 0.179063, -0.019555, -0.046702, 0.999793, 0.008710, -0.014269, -0.011581, 141.786887, -34.814297, -88.546959, , , 0.000000, , , 
09767, , 15.577211, 1.263505, -10.700882, 5.728930, -7.628899, 6.549153, 2.169622, -2.606359, -2.130088, -0.469482, -0.795654, 0.393555, 0.157279, 0.012110, -0.104832, 0.999800, 0.010847, -0.013031, -0.010650, 143.009052, -32.911656, -88.447044, , , 0.000000, , , 
09768, , 14.741491, 3.635805, -7.338426, 1.651904, -8.172997, 4.844569, 2.225151, -2.360299, -1.886100, -0.447266, -0.799805, 0.414795, 0.148603, 0.035761, -0.071235, 0.999824, 0.011125, -0.011801, -0.009430, 144.237518, -31.182707, -88.361289, , , 0.000000, , , 
09769, , 15.219673, -2.875832, -3.223512, 4.596981, -12.480906, -1.246022, 0.966713, -1.614519, -1.430143, -0.431885, -0.795410, 0.433838, 0.152241, -0.029695, -0.031148, 0.999930, 0.004833, -0.008072, -0.007151, 144.730458, -29.978351, -88.166419, , , 0.000000, , , 
09770, , 11.231535, -2.718741, -0.783462, 3.009054, -10.116800, -5.043187, 1.762443, -0.876613, -0.691803, -0.425293, -0.788818, 0.452637, 0.112254, -0.027508, -0.007584, 0.999946, 0.008812, -0.004383, -0.003459, 145.714375, -29.340650, -88.116084, , , 0.000000, , , 
09771, , 9.428157, -1.453422, -0.796433, 1.921850, -8.242819, -5.340640, 1.605360, -0.622758, -0.212299, -0.421143, -0.782227, 0.458740, 0.094291, -0.014571, -0.007788, 0.999962, 0.008027, -0.003114, -0.001061, 146.715090, -29.016682, -88.173103, , , 0.000000, , , 
09772, , 8.384732, -0.091475, -0.981116, 0.824819, -6.933604, -5.067221, 1.687460, -0.057134, 0.105813, -0.427979, -0.771484, 0.475586, 0.083851, -0.000788, -0.009794, 0.999964, 0.008437, -0.000286, 0.000529, 147.716576, -29.023121, -88.246391, , , 0.000000, , , 
09773, , 6.285298, 1.357820, -0.941061, -0.510388, -4.759154, -5.416777, 1.529483, 0.579630, 0.444240, -0.430420, -0.758545, 0.479492, 0.062795, 0.013790, -0.009488, 0.999964, 0.007647, 0.002898, 0.002221, 148.637119, -29.490835, -88.240562, , , 0.000000, , , 
09774, , 4.224251, 1.247898, -1.116167, -0.407922, -2.878682, -6.320720, 1.169114, 1.147683, 0.810295, -0.444092, -0.754395, 0.485840, 0.042127, 0.012716, -0.011330, 0.999958, 0.005845, 0.005738, 0.004051, 149.337485, -30.294943, -88.303477, , , 0.000000, , , 
09775, , 2.768375, 1.160078, -1.375427, -0.264402, -1.472275, -6.869290, 1.035904, 1.632999, 1.192808, -0.466553, -0.743652, 0.489746, 0.027500, 0.011837, -0.013918, 0.999935, 0.005179, 0.008165, 0.005964, 150.020737, -31.498626, -88.387556, , , 0.000000, , , 
09776, , 2.464042, 1.099153, -1.237347, -0.310779, -1.228854, -7.128754, 0.905242, 2.082486, 1.578219, -0.486816, -0.730713, 0.481201, 0.024422, 0.011241, -0.012578, 0.999904, 0.004526, 0.010412, 0.007891, 150.658997, -32.984439, -88.613157, , , 0.000000, , , 
09777, , 2.969252, 1.482794, -0.690127, -0.924104, -1.746427, -7.058307, 0.897553, 2.537391, 1.917345, -0.518066, -0.722412, 0.483154, 0.029458, 0.015143, -0.007209, 0.999864, 0.004488, 0.012686, 0.009586, 151.366236, -34.838831, -88.874262, , , 0.000000, , , 
09778, , 3.559573, 2.085565, -0.082164, -1.759547, -2.290225, -6.865768, 0.831458, 3.057599, 2.213241, -0.545166, -0.700684, 0.463623, 0.035345, 0.021252, -0.001275, 0.999813, 0.004157, 0.015287, 0.011066, 152.046013, -36.984144, -89.222127, , , 0.000000, , , 
09779, , 4.023031, 2.803900, 0.206296, -2.553321, -2.495542, -6.445247, 0.738260, 3.550880, 2.474151, -0.583496, -0.679199, 0.448486, 0.039909, 0.028528, 0.001457, 0.999759, 0.003691, 0.017753, 0.012370, 152.734393, -39.490777, -89.575323, , , 0.000000, , , 
09780, , 4.098943, 3.140707, 0.333251, -2.941454, -2.372811, -6.278451, 0.498350, 3.979266, 2.688375, -0.621582, -0.666504, 0.429199, 0.040619, 0.031948, 0.002601, 0.999709, 0.002492, 0.019894, 0.013441, 153.308213, -42.223231, -90.016849, , , 0.000000, , , 
09781, , 4.015972, 2.702804, -0.077748, -2.395157, -2.012508, -6.118315, 0.384515, 4.308961, 2.880292, -0.655273, -0.647217, 0.407715, 0.039737, 0.027605, -0.001584, 0.999662, 0.001922, 0.021542, 0.014400, 153.911018, -45.216420, -90.506456, , , 0.000000, , , 
09782, , 4.041110, 2.339095, -0.596181, -1.871142, -1.608936, -5.804843, 0.369677, 4.547239, 3.073378, -0.700195, -0.623535, 0.377686, 0.039896, 0.024019, -0.006829, 0.999622, 0.001848, 0.022733, 0.015365, 154.601275, -48.330062, -91.163629, , , 0.000000, , , 
09783, , 4.541534, 2.271757, -0.848368, -1.743739, -1.549799, -5.223883, 0.481172, 4.781067, 3.223303, -0.736328, -0.604004, 0.347656, 0.044822, 0.023465, -0.009504, 0.999582, 0.002406, 0.023902, 0.016114, 155.514146, -51.637312, -91.932987, , , 0.000000, , , 
09784, , 4.980084, 1.862352, -1.400634, -1.189394, -1.290752, -4.602905, 0.566754, 5.009815, 3.384727, -0.774658, -0.573975, 0.313232, 0.049105, 0.019500, -0.015188, 0.999539, 0.002833, 0.025045, 0.016921, 156.651319, -55.049744, -92.945865, , , 0.000000, , , 
09785, , 5.903754, 1.889940, -1.682791, -1.178497, -1.247236, -3.623974, 0.774891, 5.229444, 3.552943, -0.812988, -0.548096, 0.279053, 0.058223, 0.020008, -0.018281, 0.999493, 0.003874, 0.026143, 0.017762, 158.234784, -58.641889, -94.248199, , , 0.000000, , , 
09786, , 6.939858, 1.483641, -2.016822, -0.788329, -1.255719, -2.586872, 1.036807, 5.435560, 3.728446, -0.847168, -0.511230, 0.240234, 0.068524, 0.016230, -0.021957, 0.999444, 0.005183, 0.027173, 0.018639, 160.409154, -62.312797, -96.063719, , , 0.000000, , , 
09787, , 8.347690, 1.616356, -1.721026, -1.206568, -1.561648, -1.366691, 1.228953, 5.638812, 3.894786, -0.881348, -0.474365, 0.195068, 0.082612, 0.017893, -0.019441, 0.999394, 0.006144, 0.028188, 0.019470, 163.465017, -66.119857, -98.614640, , , 0.000000, , , 
09788, , 9.844225, 1.447842, -1.910531, -1.197993, -1.435331, 0.143035, 1.346549, 5.859493, 4.057279, -0.913086, -0.437500, 0.154297, 0.097506, 0.016604, -0.021865, 0.999342, 0.006731, 0.029291, 0.020282, 167.742538, -69.954533, -102.392852, , , 0.000000, , , 
09789, , 11.134032, 1.452298, -2.281874, -1.311859, -0.776011, 1.540701, 1.523093, 6.088545, 4.198454, -0.938477, -0.394287, 0.102783, 0.110240, 0.017036, -0.026063, 0.999287, 0.007614, 0.030435, 0.020987, 174.283397, -73.822337, -108.295054, , , 0.000000, , , 
09790, , 12.509945, 1.653896, -3.187398, -1.459602, 0.639339, 3.101266, 1.642948, 6.318813, 4.336019, -0.959229, -0.354980, 0.057617, 0.123611, 0.019513, -0.035644, 0.999232, 0.008213, 0.031586, 0.021675, -175.169194, -77.479000, -118.203877, , , 0.000000, , , 
09791, , 13.957040, 1.588663, -5.057987, -1.085758, 3.082391, 4.751174, 1.963857, 6.478524, 4.451195, -0.980225, -0.315918, -0.002441, 0.137432, 0.019487, -0.054876, 0.999180, 0.009817, 0.032384, 0.022250, -156.392739, -80.515752, -136.110691, , , 0.000000, , , 
09792, , 15.770233, 1.955160, -6.250906, -1.516784, 5.321255, 6.337049, 2.460045, 6.645010, 4.493915, -0.994385, -0.272461, -0.058105, 0.155012, 0.023865, -0.067414, 0.999120, 0.012297, 0.033215, 0.022463, -126.240123, -81.928145, -165.177610, , , 0.000000, , , 
09793, , 17.952980, 3.113324, -7.043220, -2.996170, 7.758940, 7.856876, 2.650428, 6.770573, 4.393010, -1.001953, -0.228760, -0.118164, 0.176264, 0.036012, -0.075982, 0.999098, 0.013248, 0.033843, 0.021958, -94.282674, -80.867645, 164.116999, , , 0.000000, , , 
09794, , 20.741098, 3.938621, -7.884685, -4.316902, 10.421358, 9.689964, 2.642768, 6.871325, 4.109038, -1.000244, -0.196045, -0.176025, 0.203671, 0.044696, -0.085321, 0.999112, 0.013210, 0.034346, 0.020539, -73.008904, -78.051950, 144.031588, , , 0.000000, , , 
09795, , 22.843614, 4.271133, -10.092388, -4.679262, 14.412772, 10.484382, 2.538421, 6.816314, 3.689394, -0.994141, -0.165283, -0.237793, 0.223979, 0.048212, -0.108021, 0.999169, 0.012689, 0.034072, 0.018442, -60.202028, -74.519666, 132.409293, , , 0.000000, , , 
09796, , 26.128748, 4.031941, -13.984094, -4.216865, 20.193864, 11.833283, 2.381033, 6.336509, 3.171985, -0.988037, -0.143555, -0.293213, 0.255994, 0.046134, -0.147482, 0.999302, 0.011902, 0.031675, 0.015856, -52.340286, -70.986539, 125.610113, , , 0.000000, , , 
09797, , 26.888283, 4.184941, -18.148173, -3.655488, 25.713059, 10.060217, 2.471981, 5.734370, 2.618304, -0.975098, -0.121582, -0.337891, 0.262946, 0.047619, -0.188514, 0.999427, 0.012358, 0.028666, 0.013089, -46.842584, -67.697395, 121.291220, , , 0.000000, , , 
09798, , 19.254160, 3.334957, -20.878336, -0.930727, 26.497829, 0.888159, 2.204584, 5.074583, 2.204643, -0.964111, -0.108154, -0.382568, 0.186769, 0.037764, -0.213171, 0.999557, 0.011021, 0.025369, 0.011022, -42.941287, -64.744514, 118.409464, , , 0.000000, , , 
09799, , 11.000128, 1.315779, -23.188634, 2.963558, 25.466501, -8.082201, 1.849621, 4.000662, 2.114285, -0.950928, -0.101562, -0.414551, 0.105174, 0.016444, -0.233881, 0.999701, 0.009247, 0.020001, 0.010570, -40.635946, -62.225737, 117.031432, , , 0.000000, , , 
09800, , 6.438463, 5.577444, -24.705632, -0.000392, 25.605875, -15.025740, 2.076400, 2.960026, 1.945016, -0.942383, -0.088379, -0.440186, 0.060162, 0.058940, -0.247367, 0.999789, 0.010381, 0.014799, 0.009724, -39.018339, -60.208362, 116.543147, , , 0.000000, , , 
09801, , 5.337762, 14.400303, -24.187960, -8.494374, 25.651502, -19.337206, 1.306824, 1.835683, 1.363495, -0.935547, -0.085938, -0.446533, 0.050170, 0.145931, -0.241401, 0.999913, 0.006534, 0.009178, 0.006817, -38.201460, -58.906887, 116.453133, , , 0.000000, , , 
09802, , 3.454611, 15.606073, -24.004888, -9.226781, 24.619482, -21.664174, -0.887269, 0.489861, 0.498931, -0.940430, -0.075195, -0.448730, 0.033569, 0.155078, -0.240821, 0.999984, -0.004436, 0.002449, 0.002495, -38.783027, -58.508015, 116.538512, , , 0.000000, , , 
09803, , 1.231911, 11.137473, -24.440529, -4.086845, 23.515198, -22.190488, -1.655056, -1.026563, -0.381074, -0.942627, -0.077393, -0.434082, 0.013786, 0.109322, -0.245247, 0.999951, -0.008275, -0.005133, -0.001905, -40.084289, -59.122360, 116.923387, , , 0.000000, , , 
09804, , 4.094528, 8.208805, -20.316052, -2.813823, 21.019819, -16.675170, -2.148029, -2.396895, -1.094145, -0.953857, -0.073242, -0.412842, 0.043823, 0.079669, -0.203511, 0.999856, -0.010740, -0.011984, -0.005470, -42.046523, -60.568590, 117.768921, , , 0.000000, , , 
09805, , 14.712352, -4.975210, -3.794387, 2.414113, 8.575714, 3.460749, -5.005842, -2.890036, -1.101885, -0.958496, -0.064697, -0.394043, 0.147359, -0.051457, -0.034542, 0.999567, -0.025026, -0.014448, -0.005509, -46.230686, -62.233837, 119.244430, , , 0.000000, , , 
09806, , 28.804842, -16.522454, 30.367007, -2.875995, -19.525023, 30.616396, -8.511309, -1.838453, -0.358701, -0.968018, -0.038574, -0.384033, 0.284918, -0.152548, 0.312972, 0.999051, -0.042543, -0.009189, -0.001793, -52.383383, -63.075975, 120.680497, , , 0.000000, , , 
09807, , 11.410777, -24.707938, -4.689797, 21.123979, 1.047854, 7.945514, -0.417277, -1.589329, -0.633606, -0.974365, -0.053955, -0.364746, 0.113689, -0.247536, -0.045477, 0.999961, -0.002086, -0.007947, -0.003168, -53.671329, -63.943903, 121.817793, , , 0.000000, , , 
09808, , 14.386852, 7.972772, -7.037878, -7.792335, 13.685873, -1.327704, 5.111392, -2.578146, -1.525174, -0.976074, -0.078125, -0.336670, 0.145353, 0.080355, -0.066463, 0.999561, 0.025553, -0.012889, -0.007625, -52.111783, -65.532018, 123.331356, , , 0.000000, , , 
09809, , 22.169874, 6.320365, -8.780431, -7.658341, 16.902543, 6.439086, -0.814365, -3.638480, -1.727116, -0.982178, -0.099854, -0.298340, 0.223783, 0.060930, -0.083997, 0.999789, -0.004072, -0.018191, -0.008635, -55.144931, -67.597482, 126.092470, , , 0.000000, , , 
09810, , 25.426890, 3.469804, -7.286662, -6.310428, 14.996622, 11.326144, 1.820804, -3.355384, -2.075202, -0.988525, -0.121826, -0.266113, 0.255786, 0.032685, -0.068280, 0.999764, 0.009103, -0.016776, -0.010375, -56.445313, -69.662336, 128.608424, , , 0.000000, , , 
09811, , 16.527578, 5.235906, -6.698358, -6.205051, 11.807236, 3.129062, 0.763013, -3.224039, -1.879125, -0.997070, -0.137207, -0.236328, 0.166808, 0.051045, -0.064106, 0.999819, 0.003815, -0.016119, -0.009395, -58.893299, -71.601372, 131.633678, , , 0.000000, , , 
09812, , 11.058292, -1.815868, -5.763637, 1.162790, 7.365240, 0.345635, 0.726799, -3.118744, -1.478838, -1.007812, -0.154785, -0.206299, 0.111327, -0.018775, -0.055972, 0.999844, 0.003634, -0.015593, -0.007394, -62.050742, -73.220904, 135.381951, , , 0.000000, , , 
09813, , 8.307086, -1.692458, -5.366415, 1.451299, 6.215171, -2.071172, 1.371933, -2.720582, -1.083135, -1.003174, -0.165527, -0.176514, 0.083700, -0.017013, -0.052645, 0.999869, 0.006859, -0.013602, -0.005415, -65.278355, -74.512263, 139.531269, , , 0.000000, , , 
09814, , 7.382861, -0.938283, -4.290433, 0.566212, 5.059066, -2.893367, 1.336849, -2.425399, -0.928889, -1.011963, -0.174561, -0.153076, 0.074298, -0.009444, -0.042068, 0.999893, 0.006684, -0.012127, -0.004644, -68.495710, -75.549239, 143.653808, , , 0.000000, , , 
09815, , 8.431533, -1.512362, -4.971542, 1.021031, 5.579511, -1.693703, 1.511366, -2.152619, -0.821200, -1.018555, -0.183350, -0.131836, 0.084783, -0.015099, -0.048919, 0.999905, 0.007557, -0.010763, -0.004106, -71.828125, -76.448594, 147.944221, , , 0.000000, , , 
09816, , 9.598575, 0.991924, -4.152415, -1.855932, 5.344731, -0.961417, 1.791978, -1.773767, -0.656015, -1.013916, -0.189941, -0.106201, 0.096381, 0.009970, -0.040581, 0.999915, 0.008960, -0.008869, -0.003280, -74.459726, -77.105208, 151.701584, , , 0.000000, , , 
09817, , 10.676078, 4.526711, -2.113851, -5.948008, 4.024170, -0.465949, 1.105147, -1.468921, -0.493151, -1.013672, -0.202881, -0.091309, 0.107022, 0.045116, -0.020104, 0.999955, 0.005526, -0.007344, -0.002466, -77.390705, -77.616201, 155.308957, , , 0.000000, , , 
09818, , 11.459290, 3.838185, -2.067973, -5.462083, 3.742896, 0.506135, -0.259892, -1.263008, -0.328085, -1.018066, -0.200928, -0.074463, 0.114783, 0.038167, -0.020005, 0.999978, -0.001299, -0.006315, -0.001640, -80.636367, -77.941101, 158.476917, , , 0.000000, , , 
09819, , 12.212956, 2.235790, -1.113094, -4.270491, 2.408532, 1.648323, -1.308557, -1.146074, -0.163370, -1.018311, -0.198730, -0.074463, 0.122209, 0.022188, -0.010576, 0.999962, -0.006543, -0.005730, -0.000817, -84.668503, -78.147023, 161.786720, , , 0.000000, , , 
