PacketCounter, SampleTimeFine, Acc_X, Acc_Y, Acc_Z, FreeAcc_X, FreeAcc_Y, FreeAcc_Z, Gyr_X, Gyr_Y, Gyr_Z, Mag_X, Mag_Y, Mag_Z, VelInc_X, VelInc_Y, VelInc_Z, OriInc_q0, OriInc_q1, OriInc_q2, OriInc_q3, Roll, Pitch, Yaw, Latitude, Longitude, Altitude, Vel_X, Vel_Y, Vel_Z
09371, , 9.609613, -0.178801, -1.781176, -0.000000, -0.000000, -0.037759, 0.064630, -0.008687, -0.001565, -0.842041, -0.366943, 0.196045, 0.096097, -0.001783, -0.017808, 1.000000, 0.000323, -0.000043, -0.000008, -174.282428, -79.450033, -90.881782, , , 0.000000, , , 
09372, , 9.536217, -0.012453, -1.895623, 0.000000, -0.000000, -0.089881, 0.036642, -0.028355, -0.006607, -0.846191, -0.364990, 0.198242, 0.095365, -0.000124, -0.018943, 1.000000, 0.000183, -0.000142, -0.000033, -179.624320, -78.765090, -86.878181, , , 0.000000, , , 
09373, , 9.552106, 0.049972, -1.806789, -0.141722, -0.037733, -0.092183, -0.003691, -0.030860, -0.008549, -0.842041, -0.362793, 0.200195, 0.095524, 0.000495, -0.018053, 1.000000, -0.000018, -0.000154, -0.000043, -177.077575, -79.105227, -88.702440, , , 0.000000, , , 
09374, , 9.605773, 0.053076, -1.736564, -0.138090, -0.120065, -0.052776, -0.008417, -0.036618, -0.012670, -0.844238, -0.362793, 0.200195, 0.096061, 0.000524, -0.017348, 1.000000, -0.000042, -0.000183, -0.000063, -177.125537, -79.084641, -88.658507, , , 0.000000, , , 
09375, , 9.636939, 0.006496, -1.778364, -0.093206, -0.085748, -0.013852, -0.021727, -0.033211, -0.006176, -0.840088, -0.362793, 0.202393, 0.096372, 0.000060, -0.017768, 1.000000, -0.000109, -0.000166, -0.000031, -177.158344, -79.061291, -88.635684, , , 0.000000, , , 
09376, , 9.652219, -0.016602, -1.800866, -0.070730, -0.068200, 0.005615, -0.012361, -0.034575, -0.003540, -0.842285, -0.358643, 0.198242, 0.096525, -0.000169, -0.017992, 1.000000, -0.000062, -0.000173, -0.000018, -177.180954, -79.041605, -88.619868, , , 0.000000, , , 
09377, , 9.722623, -0.057768, -1.880102, -0.034595, -0.005132, 0.090156, -0.013548, -0.035075, 0.003340, -0.850342, -0.360840, 0.202393, 0.097230, -0.000577, -0.018784, 1.000000, -0.000068, -0.000175, 0.000017, -177.184286, -79.017400, -88.622552, , , 0.000000, , , 
09378, , 9.688707, -0.129143, -1.946635, 0.031765, 0.067881, 0.070202, -0.016169, -0.040253, 0.004700, -0.843994, -0.364990, 0.200195, 0.096891, -0.001291, -0.019447, 1.000000, -0.000081, -0.000201, 0.000023, -177.185536, -78.994232, -88.630715, , , 0.000000, , , 
09379, , 9.694045, -0.141740, -1.929984, 0.045544, 0.047353, 0.072408, -0.002735, -0.032940, 0.005507, -0.846191, -0.364990, 0.202393, 0.096944, -0.001415, -0.019284, 1.000000, -0.000014, -0.000165, 0.000028, -177.176335, -78.972475, -88.640493, , , 0.000000, , , 
09380, , 9.620323, -0.035249, -1.815976, -0.053089, -0.060432, -0.022735, -0.003269, -0.019312, 0.006873, -0.844238, -0.360840, 0.198242, 0.096205, -0.000349, -0.018150, 1.000000, -0.000016, -0.000097, 0.000034, -177.160840, -78.961229, -88.658188, , , 0.000000, , , 
09381, , 9.563291, -0.084235, -1.742741, 0.000872, -0.120460, -0.092283, -0.043707, -0.033502, 0.005368, -0.846191, -0.364990, 0.204346, 0.095636, -0.000844, -0.017411, 1.000000, -0.000219, -0.000168, 0.000027, -177.176128, -78.940801, -88.667639, , , 0.000000, , , 
09382, , 9.574032, -0.141991, -1.696507, 0.062141, -0.167384, -0.090110, -0.013112, -0.043135, 0.004575, -0.848389, -0.362793, 0.200195, 0.095744, -0.001419, -0.016944, 1.000000, -0.000066, -0.000216, 0.000023, -177.176482, -78.915987, -88.674933, , , 0.000000, , , 
09383, , 9.666839, -0.021333, -1.772986, -0.063162, -0.123131, 0.014447, 0.012680, -0.036936, -0.001519, -0.842041, -0.360840, 0.204590, 0.096672, -0.000213, -0.017712, 1.000000, 0.000063, -0.000185, -0.000008, -177.178529, -78.893588, -88.664260, , , 0.000000, , , 
09384, , 9.656430, -0.009577, -1.737166, -0.071889, -0.160732, -0.002821, -0.030368, -0.039060, 0.000576, -0.846191, -0.366943, 0.200195, 0.096568, -0.000098, -0.017353, 1.000000, -0.000152, -0.000195, 0.000003, -177.199836, -78.871218, -88.660278, , , 0.000000, , , 
09385, , 9.696548, -0.049020, -1.689775, -0.028092, -0.216599, 0.027693, -0.058424, -0.054142, 0.005883, -0.848145, -0.366943, 0.208496, 0.096970, -0.000492, -0.016871, 1.000000, -0.000292, -0.000271, 0.000029, -177.226854, -78.840015, -88.665708, , , 0.000000, , , 
09386, , 9.733035, -0.089792, -1.583266, 0.020625, -0.330112, 0.043142, -0.039809, -0.049168, 0.012017, -0.843994, -0.366943, 0.206543, 0.097334, -0.000895, -0.015809, 1.000000, -0.000199, -0.000246, 0.000060, -177.221755, -78.811543, -88.694156, , , 0.000000, , , 
09387, , 9.803450, -0.079170, -1.543433, 0.013078, -0.388442, 0.104218, -0.028175, -0.042810, 0.009455, -0.846191, -0.362793, 0.204346, 0.098038, -0.000789, -0.015413, 1.000000, -0.000141, -0.000214, 0.000047, -177.218833, -78.784756, -88.710086, , , 0.000000, , , 
09388, , 9.855964, -0.215789, -1.704960, 0.138000, -0.234113, 0.188294, -0.026796, -0.017742, 0.007821, -0.846191, -0.364990, 0.200195, 0.098561, -0.002156, -0.017041, 1.000000, -0.000134, -0.000089, 0.000039, -177.214112, -78.774384, -88.730551, , , 0.000000, , , 
09389, , 9.835012, -0.166320, -1.845298, 0.077899, -0.094836, 0.194569, -0.000564, 0.018138, 0.011655, -0.846191, -0.360840, 0.204590, 0.098349, -0.001658, -0.018462, 1.000000, -0.000003, 0.000091, 0.000058, -177.176836, -78.792503, -88.767918, , , 0.000000, , , 
09390, , 9.688542, -0.111404, -1.970300, 0.011901, 0.054790, 0.074638, 0.012082, 0.038405, 0.019375, -0.843994, -0.366943, 0.200195, 0.096882, -0.001103, -0.019722, 1.000000, 0.000060, 0.000192, 0.000097, -177.108360, -78.813927, -88.830666, , , 0.000000, , , 
09391, , 9.583603, -0.044391, -1.922616, -0.054285, 0.028021, -0.038224, 0.037579, 0.025558, 0.010601, -0.850342, -0.362793, 0.200195, 0.095834, -0.000435, -0.019238, 1.000000, 0.000188, 0.000128, 0.000053, -177.048878, -78.835309, -88.867857, , , 0.000000, , , 
09392, , 9.616238, 0.011617, -1.718972, -0.096826, -0.180370, -0.046156, 0.012980, -0.000679, 0.003327, -0.852539, -0.360840, 0.202393, 0.096162, 0.000119, -0.017189, 1.000000, 0.000065, -0.000003, 0.000017, -177.031897, -78.834822, -88.877585, , , 0.000000, , , 
09393, , 9.652081, -0.096067, -1.588510, 0.019351, -0.305793, -0.035092, 0.019606, -0.000704, 0.002210, -0.846191, -0.360840, 0.202393, 0.096521, -0.000958, -0.015885, 1.000000, 0.000098, -0.000004, 0.000011, -177.012211, -78.844334, -88.885596, , , 0.000000, , , 
09394, , 9.700647, -0.082769, -1.535102, 0.009252, -0.368066, 0.002117, 0.027008, 0.008041, 0.006661, -0.846191, -0.364990, 0.200195, 0.097006, -0.000822, -0.015355, 1.000000, 0.000135, 0.000040, 0.000033, -176.976166, -78.848736, -88.906561, , , 0.000000, , , 
09395, , 9.678479, -0.099883, -1.655687, 0.016854, -0.241660, 0.003908, 0.009520, 0.008135, 0.003936, -0.844238, -0.362793, 0.204346, 0.096784, -0.000996, -0.016561, 1.000000, 0.000048, 0.000041, 0.000020, -176.961611, -78.865851, -88.914426, , , 0.000000, , , 
09396, , 9.664313, -0.081941, -1.904972, -0.019465, 0.004727, 0.037905, 0.030532, 0.011921, -0.002004, -0.846191, -0.362793, 0.202393, 0.096642, -0.000817, -0.019056, 1.000000, 0.000153, 0.000060, -0.000010, -176.948099, -78.872734, -88.910368, , , 0.000000, , , 
09397, , 9.661177, 0.009903, -2.082089, -0.124525, 0.175640, 0.067959, 0.025855, 0.022408, 0.003786, -0.850342, -0.362793, 0.202393, 0.096609, 0.000104, -0.020832, 1.000000, 0.000129, 0.000112, 0.000019, -176.921676, -78.896275, -88.919289, , , 0.000000, , , 
09398, , 9.675792, 0.031428, -2.188358, -0.154613, 0.277730, 0.102443, 0.006480, 0.028273, 0.006285, -0.848389, -0.360840, 0.200195, 0.096755, 0.000318, -0.021897, 1.000000, 0.000032, 0.000141, 0.000031, -176.895184, -78.912253, -88.942501, , , 0.000000, , , 
09399, , 9.562696, 0.012130, -2.131901, -0.132833, 0.251027, -0.019341, 0.032963, 0.048768, 0.008337, -0.852539, -0.362793, 0.198242, 0.095622, 0.000129, -0.021342, 1.000000, 0.000165, 0.000244, 0.000042, -176.852819, -78.949999, -88.965367, , , 0.000000, , , 
09400, , 9.468808, 0.041385, -1.903893, -0.147552, 0.047463, -0.155523, 0.061876, 0.030471, 0.003293, -0.846436, -0.356689, 0.202393, 0.094685, 0.000421, -0.019053, 1.000000, 0.000309, 0.000152, 0.000016, -176.802753, -78.967326, -88.980255, , , 0.000000, , , 
09401, , 9.466340, -0.039530, -1.743356, -0.055858, -0.100266, -0.187758, 0.042336, 0.008401, -0.003733, -0.843994, -0.364990, 0.204346, 0.094663, -0.000393, -0.017438, 1.000000, 0.000212, 0.000042, -0.000019, -176.798698, -78.979808, -88.958827, , , 0.000000, , , 
09402, , 9.516163, -0.124286, -1.721158, 0.030344, -0.125264, -0.142187, 0.032042, -0.007338, -0.007244, -0.846191, -0.364990, 0.204346, 0.095162, -0.001244, -0.017208, 1.000000, 0.000160, -0.000037, -0.000036, -176.802762, -78.975846, -88.935983, , , 0.000000, , , 
09403, , 9.525682, -0.135972, -1.761850, 0.040313, -0.087084, -0.124962, 0.037970, -0.019299, -0.004525, -0.844238, -0.362793, 0.202393, 0.095258, -0.001359, -0.017610, 1.000000, 0.000190, -0.000096, -0.000023, -176.836360, -78.968085, -88.878088, , , 0.000000, , , 
09404, , 9.627101, -0.093441, -1.857125, -0.008707, -0.018515, -0.007673, 0.034449, -0.025540, -0.007828, -0.846436, -0.358643, 0.208740, 0.096273, -0.000935, -0.018559, 1.000000, 0.000172, -0.000128, -0.000039, -176.843755, -78.953711, -88.850440, , , 0.000000, , , 
09405, , 9.631023, -0.059641, -1.928908, -0.047162, 0.046501, 0.009556, 0.037781, -0.026630, -0.007529, -0.850342, -0.362793, 0.202393, 0.096313, -0.000596, -0.019276, 1.000000, 0.000189, -0.000133, -0.000038, -176.859714, -78.941817, -88.808479, , , 0.000000, , , 
09406, , 9.654756, 0.003697, -1.958808, -0.112260, 0.064438, 0.037922, 0.013502, -0.015464, -0.003989, -0.846191, -0.360840, 0.202393, 0.096549, 0.000036, -0.019581, 1.000000, 0.000068, -0.000077, -0.000020, -176.866165, -78.933069, -88.794012, , , 0.000000, , , 
09407, , 9.627436, -0.027163, -1.882400, -0.075138, -0.003178, -0.003200, 0.041844, -0.016758, -0.003379, -0.842041, -0.364990, 0.200195, 0.096276, -0.000269, -0.018816, 1.000000, 0.000209, -0.000084, -0.000017, -176.878624, -78.930488, -88.756156, , , 0.000000, , , 
09408, , 9.609144, 0.062164, -1.824698, -0.160124, -0.064831, -0.033158, 0.032011, -0.023350, -0.003442, -0.846191, -0.360840, 0.200195, 0.096094, 0.000623, -0.018236, 1.000000, 0.000160, -0.000117, -0.000017, -176.874088, -78.917217, -88.742081, , , 0.000000, , , 
09409, , 9.561251, -0.031352, -1.780588, -0.062523, -0.092545, -0.087641, 0.005471, -0.021104, -0.000695, -0.846191, -0.362793, 0.206543, 0.095614, -0.000313, -0.017796, 1.000000, 0.000027, -0.000106, -0.000003, -176.913549, -78.913105, -88.699209, , , 0.000000, , , 
09410, , 9.586251, -0.067380, -1.841789, -0.031324, -0.037330, -0.050999, 0.038486, -0.031681, 0.000132, -0.844238, -0.362793, 0.204346, 0.095865, -0.000670, -0.018403, 1.000000, 0.000192, -0.000158, 0.000001, -176.896218, -78.894975, -88.694402, , , 0.000000, , , 
09411, , 9.571213, 0.021867, -1.845691, -0.120150, -0.040579, -0.065940, 0.050809, -0.047613, 0.003038, -0.846191, -0.360840, 0.200195, 0.095717, 0.000225, -0.018434, 1.000000, 0.000254, -0.000238, 0.000015, -176.902938, -78.871798, -88.656389, , , 0.000000, , , 
09412, , 9.499077, 0.009427, -1.894867, -0.112549, 0.017308, -0.127126, 0.046109, -0.055530, 0.000650, -0.848389, -0.362793, 0.208496, 0.094996, 0.000099, -0.018922, 1.000000, 0.000231, -0.000278, 0.000003, -176.883551, -78.839995, -88.649222, , , 0.000000, , , 
09413, , 9.564900, -0.013334, -1.787145, -0.080045, -0.103836, -0.083135, 0.024911, -0.067861, -0.002375, -0.848389, -0.362793, 0.204346, 0.095655, -0.000132, -0.017839, 1.000000, 0.000125, -0.000339, -0.000012, -176.926569, -78.808282, -88.590443, , , 0.000000, , , 
09414, , 9.575237, -0.091249, -1.873668, -0.008807, -0.022124, -0.055457, 0.018998, -0.074093, 0.000423, -0.846191, -0.362793, 0.204346, 0.095759, -0.000911, -0.018701, 1.000000, 0.000095, -0.000370, 0.000002, -176.926104, -78.765874, -88.579825, , , 0.000000, , , 
09415, , 9.609428, -0.085919, -1.858992, -0.011095, -0.049525, -0.024850, 0.012768, -0.079956, 0.001102, -0.846436, -0.354492, 0.204590, 0.096102, -0.000857, -0.018552, 1.000000, 0.000064, -0.000400, 0.000006, -176.974178, -78.728907, -88.523832, , , 0.000000, , , 
09416, , 9.612223, -0.032333, -1.805889, -0.059841, -0.113646, -0.033085, -0.005117, -0.073995, -0.001152, -0.843994, -0.364990, 0.206543, 0.096129, -0.000324, -0.018023, 1.000000, -0.000026, -0.000370, -0.000006, -176.991778, -78.686622, -88.508888, , , 0.000000, , , 
09417, , 9.584631, -0.049600, -1.874918, -0.046459, -0.045575, -0.046486, -0.012793, -0.083341, 0.000016, -0.846191, -0.360840, 0.208740, 0.095854, -0.000497, -0.018709, 1.000000, -0.000064, -0.000417, 0.000000, -177.038541, -78.647613, -88.467242, , , 0.000000, , , 
09418, , 9.640238, -0.100206, -1.990078, -0.004059, 0.051663, 0.031191, 0.008647, -0.086373, 0.001279, -0.843994, -0.364990, 0.206543, 0.096411, -0.001001, -0.019859, 1.000000, 0.000043, -0.000432, 0.000006, -177.042768, -78.598187, -88.457894, , , 0.000000, , , 
09419, , 9.572848, 0.007618, -2.001129, -0.111319, 0.060264, -0.033732, 0.027623, -0.085071, 0.005203, -0.846191, -0.360840, 0.208740, 0.095737, 0.000081, -0.019971, 1.000000, 0.000138, -0.000425, 0.000026, -177.069391, -78.556577, -88.414557, , , 0.000000, , , 
09420, , 9.497362, -0.091390, -2.165118, -0.026271, 0.233144, -0.074057, 0.030896, -0.119299, 0.007204, -0.848389, -0.360840, 0.210693, 0.094987, -0.000907, -0.021595, 1.000000, 0.000154, -0.000596, 0.000036, -177.048863, -78.488148, -88.417468, , , 0.000000, , , 
09421, , 9.550856, -0.189321, -2.135226, 0.074941, 0.189168, -0.026346, 0.027009, -0.141096, 0.005685, -0.844238, -0.362793, 0.210693, 0.095524, -0.001888, -0.021285, 1.000000, 0.000135, -0.000705, 0.000028, -177.073433, -78.412828, -88.376386, , , 0.000000, , , 
09422, , 9.585587, -0.263126, -2.027688, 0.157526, 0.068932, -0.012961, 0.021913, -0.146411, -0.000472, -0.848389, -0.360840, 0.212891, 0.095871, -0.002629, -0.020207, 1.000000, 0.000110, -0.000732, -0.000002, -177.083093, -78.329123, -88.353735, , , 0.000000, , , 
09423, , 9.696543, -0.258784, -1.955615, 0.161036, -0.037225, 0.081100, 0.040676, -0.133052, 0.000866, -0.840088, -0.358887, 0.212891, 0.096978, -0.002583, -0.019492, 1.000000, 0.000203, -0.000665, 0.000004, -177.106995, -78.256595, -88.306013, , , 0.000000, , , 
09424, , 9.699040, -0.205660, -1.906405, 0.112291, -0.101345, 0.072916, 0.025950, -0.099016, -0.001480, -0.846436, -0.358887, 0.219238, 0.097000, -0.002055, -0.019016, 1.000000, 0.000130, -0.000495, -0.000007, -177.110049, -78.200056, -88.287743, , , 0.000000, , , 
09425, , 9.616018, -0.073586, -1.898766, -0.018895, -0.111445, -0.011374, 0.027051, -0.091787, 0.000186, -0.844482, -0.354736, 0.217041, 0.096169, -0.000733, -0.018944, 1.000000, 0.000135, -0.000459, 0.000001, -177.108444, -78.148679, -88.270786, , , 0.000000, , , 
09426, , 9.650269, -0.068394, -1.885395, -0.022662, -0.140356, 0.019244, 0.006424, -0.079975, 0.004537, -0.846191, -0.364990, 0.218994, 0.096510, -0.000681, -0.018815, 1.000000, 0.000032, -0.000400, 0.000023, -177.103435, -78.102848, -88.272169, , , 0.000000, , , 
09427, , 9.643907, -0.122946, -1.953008, 0.026433, -0.075604, 0.027429, 0.048714, -0.071510, 0.000460, -0.844238, -0.358887, 0.217041, 0.096446, -0.001224, -0.019496, 1.000000, 0.000244, -0.000358, 0.000002, -177.094295, -78.065422, -88.250860, , , 0.000000, , , 
09428, , 9.741152, -0.016217, -2.015382, -0.084994, -0.051003, 0.134284, 0.059426, -0.080962, 0.002992, -0.846191, -0.363037, 0.223145, 0.097420, -0.000155, -0.020114, 1.000000, 0.000297, -0.000405, 0.000015, -177.063238, -78.019063, -88.247819, , , 0.000000, , , 
09429, , 9.771022, -0.032737, -2.071793, -0.073145, -0.008370, 0.175347, 0.036580, -0.080178, 0.008338, -0.842041, -0.363037, 0.221191, 0.097719, -0.000320, -0.020679, 1.000000, 0.000183, -0.000401, 0.000042, -177.049300, -77.976394, -88.238932, , , 0.000000, , , 
09430, , 9.756747, -0.088498, -1.960231, -0.009274, -0.117285, 0.138725, 0.038804, -0.072494, 0.003094, -0.842285, -0.356689, 0.223389, 0.097575, -0.000880, -0.019567, 1.000000, 0.000194, -0.000362, 0.000015, -177.028715, -77.934863, -88.237257, , , 0.000000, , , 
09431, , 9.657969, -0.130644, -1.930964, 0.035091, -0.127943, 0.036397, 0.035754, -0.060390, -0.009188, -0.840088, -0.360840, 0.218994, 0.096585, -0.001307, -0.019281, 1.000000, 0.000179, -0.000302, -0.000046, -177.055079, -77.902486, -88.186320, , , 0.000000, , , 
09432, , 9.675346, -0.121198, -2.025329, 0.018752, -0.045849, 0.072985, 0.047311, -0.051888, -0.013603, -0.848389, -0.362793, 0.223145, 0.096759, -0.001214, -0.020228, 1.000000, 0.000237, -0.000259, -0.000068, -177.071230, -77.873204, -88.142074, , , 0.000000, , , 
09433, , 9.617838, -0.156832, -2.092040, 0.049577, 0.030752, 0.031125, 0.029815, -0.041794, -0.003398, -0.844238, -0.358887, 0.221191, 0.096183, -0.001567, -0.020901, 1.000000, 0.000149, -0.000209, -0.000017, -177.092657, -77.855939, -88.101931, , , 0.000000, , , 
09434, , 9.631876, -0.214564, -2.105199, 0.105843, 0.041583, 0.048246, 0.027097, -0.035910, 0.003125, -0.842041, -0.363037, 0.221191, 0.096323, -0.002141, -0.021035, 1.000000, 0.000135, -0.000180, 0.000016, -177.073660, -77.835326, -88.105489, , , 0.000000, , , 
09435, , 9.588633, -0.209468, -2.150032, 0.096273, 0.091610, 0.015371, 0.048153, -0.033036, 0.004677, -0.842041, -0.363037, 0.223145, 0.095890, -0.002087, -0.021485, 1.000000, 0.000241, -0.000165, 0.000023, -177.051521, -77.822477, -88.098869, , , 0.000000, , , 
09436, , 9.558237, -0.096136, -2.134245, -0.016261, 0.069958, -0.018864, 0.017983, -0.032785, 0.000993, -0.844482, -0.356689, 0.221191, 0.095586, -0.000959, -0.021327, 1.000000, 0.000090, -0.000164, 0.000005, -177.043086, -77.803740, -88.096978, , , 0.000000, , , 
09437, , 9.595358, -0.123559, -2.165854, 0.008853, 0.092779, 0.024405, -0.019012, -0.033123, 0.004055, -0.852539, -0.360840, 0.218994, 0.095957, -0.001236, -0.021643, 1.000000, -0.000095, -0.000166, 0.000020, -177.052420, -77.789489, -88.097178, , , 0.000000, , , 
09438, , 9.536327, -0.126740, -2.180585, 0.010120, 0.117326, -0.030117, 0.019329, -0.018297, 0.005564, -0.840088, -0.363037, 0.227539, 0.095365, -0.001263, -0.021797, 1.000000, 0.000097, -0.000091, 0.000028, -177.029132, -77.778929, -88.109703, , , 0.000000, , , 
09439, , 9.541668, -0.040724, -2.132523, -0.071864, 0.060685, -0.035986, 0.039597, -0.026317, 0.003342, -0.846436, -0.360840, 0.218994, 0.095419, -0.000401, -0.021313, 1.000000, 0.000198, -0.000132, 0.000017, -177.016442, -77.767929, -88.100025, , , 0.000000, , , 
09440, , 9.584934, -0.114120, -2.133162, 0.000660, 0.055878, 0.007253, 0.019992, -0.022355, 0.005556, -0.843994, -0.367188, 0.223145, 0.095852, -0.001136, -0.021321, 1.000000, 0.000100, -0.000112, 0.000028, -176.993446, -77.755072, -88.111876, , , 0.000000, , , 
09441, , 9.583885, -0.148153, -2.125430, 0.035516, 0.050144, 0.004974, 0.041647, -0.024756, 0.001102, -0.842285, -0.356689, 0.225342, 0.095841, -0.001477, -0.021243, 1.000000, 0.000208, -0.000124, 0.000006, -177.000964, -77.746895, -88.083270, , , 0.000000, , , 
09442, , 9.623804, -0.143368, -2.226631, 0.021685, 0.136662, 0.065415, 0.052075, -0.039339, -0.001033, -0.850586, -0.358643, 0.221191, 0.096242, -0.001428, -0.022248, 1.000000, 0.000260, -0.000197, -0.000005, -176.979587, -77.724590, -88.074698, , , 0.000000, , , 
09443, , 9.632781, -0.089761, -2.289970, -0.037611, 0.188548, 0.087087, 0.016789, -0.041143, -0.006573, -0.846436, -0.358887, 0.225342, 0.096332, -0.000899, -0.022880, 1.000000, 0.000084, -0.000206, -0.000033, -176.980544, -77.705124, -88.062943, , , 0.000000, , , 
09444, , 9.622964, -0.077236, -2.254776, -0.046335, 0.150924, 0.069949, -0.013151, -0.049502, -0.003352, -0.844238, -0.363037, 0.225342, 0.096235, -0.000775, -0.022524, 1.000000, -0.000066, -0.000248, -0.000017, -177.003672, -77.677118, -88.047071, , , 0.000000, , , 
09445, , 9.628079, -0.121912, -2.228568, 0.001594, 0.124118, 0.069917, -0.012742, -0.032749, 0.000811, -0.844238, -0.358887, 0.219238, 0.096284, -0.001220, -0.022270, 1.000000, -0.000064, -0.000164, 0.000004, -177.023703, -77.658413, -88.035224, , , 0.000000, , , 
09446, , 9.605102, -0.118771, -2.221831, -0.000895, 0.119779, 0.046028, 0.005987, -0.017327, 0.000231, -0.840088, -0.364990, 0.227295, 0.096053, -0.001187, -0.022210, 1.000000, 0.000030, -0.000087, 0.000001, -177.022018, -77.648729, -88.033536, , , 0.000000, , , 
09447, , 9.564807, -0.091629, -2.135174, -0.020167, 0.040207, -0.012133, -0.002729, -0.016726, 0.001941, -0.846191, -0.363037, 0.227539, 0.095650, -0.000916, -0.021344, 1.000000, -0.000014, -0.000084, 0.000010, -177.039187, -77.639780, -88.020687, , , 0.000000, , , 
09448, , 9.607720, -0.197394, -2.125152, 0.086145, 0.028644, 0.028820, 0.015660, -0.016837, 0.003172, -0.842285, -0.360840, 0.223389, 0.096079, -0.001971, -0.021244, 1.000000, 0.000078, -0.000084, 0.000016, -177.024425, -77.630345, -88.026747, , , 0.000000, , , 
09449, , 9.639663, -0.147578, -2.194873, 0.030330, 0.084143, 0.074392, 0.046835, -0.005587, 0.004988, -0.846436, -0.360840, 0.221191, 0.096397, -0.001468, -0.021946, 1.000000, 0.000234, -0.000028, 0.000025, -176.999339, -77.626204, -88.027284, , , 0.000000, , , 
09450, , 9.573940, -0.040100, -2.197509, -0.078458, 0.091436, 0.009556, 0.009954, 0.002285, 0.003343, -0.846191, -0.363037, 0.229492, 0.095739, -0.000398, -0.021976, 1.000000, 0.000050, 0.000011, 0.000017, -176.984941, -77.627731, -88.036337, , , 0.000000, , , 
09451, , 9.553063, -0.081648, -2.039599, -0.022850, -0.055135, -0.044163, -0.038241, -0.022483, -0.002249, -0.844238, -0.363037, 0.218994, 0.095533, -0.000821, -0.020385, 1.000000, -0.000191, -0.000112, -0.000011, -177.028965, -77.615072, -88.016937, , , 0.000000, , , 
09452, , 9.670204, -0.174521, -2.047492, 0.070942, -0.066795, 0.072960, -0.015974, -0.023434, -0.004199, -0.844238, -0.364990, 0.227295, 0.096704, -0.001749, -0.020463, 1.000000, -0.000080, -0.000117, -0.000021, -177.052612, -77.602155, -88.002271, , , 0.000000, , , 
09453, , 9.741133, -0.096115, -1.966062, 0.001905, -0.168163, 0.123913, 0.005545, 0.006558, -0.005018, -0.844238, -0.358887, 0.223389, 0.097411, -0.000963, -0.019664, 1.000000, 0.000028, 0.000033, -0.000025, -177.088856, -77.609046, -87.967427, , , 0.000000, , , 
09454, , 9.769234, -0.177010, -1.934444, 0.085739, -0.197335, 0.145477, -0.028373, 0.006691, 0.002224, -0.844238, -0.363037, 0.229492, 0.097692, -0.001772, -0.019347, 1.000000, -0.000142, 0.000033, 0.000011, -177.099179, -77.613262, -87.973729, , , 0.000000, , , 
09455, , 9.974987, -0.117011, -1.906191, 0.030803, -0.272926, 0.339760, -0.050273, 0.014322, -0.004426, -0.846436, -0.360840, 0.227539, 0.099748, -0.001177, -0.019069, 1.000000, -0.000251, 0.000072, -0.000022, -177.140385, -77.621668, -87.961392, , , 0.000000, , , 
09456, , 10.208273, -0.060186, -2.002326, -0.031773, -0.228669, 0.587720, -0.068340, 0.089544, 0.011033, -0.846191, -0.362793, 0.221191, 0.102074, -0.000603, -0.020069, 1.000000, -0.000342, 0.000448, 0.000055, -177.139780, -77.673055, -88.002328, , , 0.000000, , , 
09457, , 10.400982, 0.010497, -1.741503, -0.080307, -0.514179, 0.720237, -0.051097, 0.189564, 0.017416, -0.848389, -0.358643, 0.219238, 0.103993, 0.000110, -0.017514, 1.000000, -0.000255, 0.000948, 0.000087, -177.102979, -77.785682, -88.071088, , , 0.000000, , , 
09458, , 10.457546, -0.165902, -1.396059, 0.121216, -0.823425, 0.706057, 0.020096, 0.277631, 0.015802, -0.842041, -0.367188, 0.218994, 0.104556, -0.001649, -0.014106, 0.999999, 0.000100, 0.001388, 0.000079, -177.012198, -77.944584, -88.152419, , , 0.000000, , , 
09459, , 10.513218, -0.353021, -1.367495, 0.304368, -0.808896, 0.759696, 0.204757, 0.412610, 0.022179, -0.848389, -0.360840, 0.221191, 0.105104, -0.003504, -0.013895, 0.999997, 0.001024, 0.002063, 0.000111, -176.790950, -78.191267, -88.259888, , , 0.000000, , , 
09460, , 10.234476, -0.098684, -1.194269, 0.054310, -0.895996, 0.452523, 0.287333, 0.481660, 0.028853, -0.844238, -0.362793, 0.217041, 0.102316, -0.000955, -0.012191, 0.999996, 0.001437, 0.002408, 0.000144, -176.468873, -78.466370, -88.420951, , , 0.000000, , , 
09461, , 10.207419, -0.122756, -1.086330, 0.077318, -0.943200, 0.409385, 0.230020, 0.483928, 0.039402, -0.850586, -0.356689, 0.210693, 0.102048, -0.001195, -0.011112, 0.999996, 0.001150, 0.002420, 0.000197, -176.148884, -78.750711, -88.607851, , , 0.000000, , , 
09462, , 10.261926, -0.081658, -0.994438, 0.033602, -0.998467, 0.449108, 0.218560, 0.479455, 0.050577, -0.854736, -0.356689, 0.210693, 0.102595, -0.000780, -0.010191, 0.999996, 0.001093, 0.002397, 0.000253, -175.779310, -79.023232, -88.857150, , , 0.000000, , , 
09463, , 10.357366, 0.140606, -0.720770, -0.174658, -1.251596, 0.493479, 0.169961, 0.500433, 0.059494, -0.848633, -0.352539, 0.202393, 0.103555, 0.001443, -0.007466, 0.999996, 0.000850, 0.002502, 0.000297, -175.362696, -79.326304, -89.173679, , , 0.000000, , , 
09464, , 10.344414, 0.201453, -0.737134, -0.249721, -1.184603, 0.489007, 0.084717, 0.573530, 0.071378, -0.848389, -0.358643, 0.202393, 0.103422, 0.002055, -0.007667, 0.999996, 0.000424, 0.002868, 0.000357, -174.945817, -79.650831, -89.548572, , , 0.000000, , , 
09465, , 10.087035, 0.120947, -0.932161, -0.202162, -0.873938, 0.278240, 0.027891, 0.655134, 0.071560, -0.854492, -0.358643, 0.194092, 0.100839, 0.001247, -0.009652, 0.999995, 0.000139, 0.003276, 0.000358, -174.510295, -80.045664, -89.963670, , , 0.000000, , , 
09466, , 9.501282, 0.132372, -1.211642, -0.254942, -0.433827, -0.246792, 0.052334, 0.708322, 0.084646, -0.856689, -0.354492, 0.187744, 0.094969, 0.001367, -0.012452, 0.999994, 0.000262, 0.003542, 0.000423, -173.963542, -80.445129, -90.488283, , , 0.000000, , , 
09467, , 8.940282, 0.305090, -1.208770, -0.440680, -0.292613, -0.801433, 0.048305, 0.665352, 0.108748, -0.856689, -0.356445, 0.177246, 0.089360, 0.003102, -0.012384, 0.999994, 0.000242, 0.003327, 0.000544, -173.325005, -80.847736, -91.098676, , , 0.000000, , , 
09468, , 8.868141, 0.448740, -1.072259, -0.586907, -0.374086, -0.895827, 0.046784, 0.589297, 0.136586, -0.856934, -0.350342, 0.173340, 0.088646, 0.004551, -0.010983, 0.999995, 0.000234, 0.002946, 0.000683, -172.545872, -81.173780, -91.860643, , , 0.000000, , , 
09469, , 8.821058, -0.062469, -1.582491, -0.143791, 0.238109, -0.854916, -0.099837, 0.526729, 0.150464, -0.854736, -0.354492, 0.171143, 0.088169, -0.000566, -0.016057, 0.999996, -0.000499, 0.002634, 0.000752, -171.803827, -81.497971, -92.662618, , , 0.000000, , , 
09470, , 8.940873, -0.401296, -1.523744, 0.181448, 0.237115, -0.738948, -0.044009, 0.447215, 0.163399, -0.863037, -0.352295, 0.164795, 0.089378, -0.003943, -0.015436, 0.999997, -0.000220, 0.002236, 0.000817, -170.941112, -81.737988, -93.560477, , , 0.000000, , , 
09471, , 9.047608, -0.826769, -1.862268, 0.555310, 0.635705, -0.576985, -0.065876, 0.374680, 0.172115, -0.860840, -0.350342, 0.164795, 0.090448, -0.008196, -0.018789, 0.999998, -0.000329, 0.001873, 0.000861, -170.109394, -81.963487, -94.434136, , , 0.000000, , , 
09472, , 8.980561, -0.565004, -1.944791, 0.270061, 0.729977, -0.639572, 0.043040, 0.272061, 0.162932, -0.867188, -0.348145, 0.162842, 0.089784, -0.005573, -0.019571, 0.999999, 0.000215, 0.001360, 0.000815, -169.230431, -82.100913, -95.297161, , , 0.000000, , , 
09473, , 8.963547, -0.167567, -1.944271, -0.140947, 0.714717, -0.668141, 0.002322, 0.125839, 0.152116, -0.858887, -0.346191, 0.165039, 0.089624, -0.001607, -0.019499, 1.000000, 0.000012, 0.000629, 0.000761, -168.519398, -82.175944, -96.007892, , , 0.000000, , , 
09474, , 9.182332, -0.082529, -1.870690, -0.235765, 0.613365, -0.464442, 0.026580, 0.090243, 0.136495, -0.865234, -0.343994, 0.166992, 0.091815, -0.000760, -0.018748, 1.000000, 0.000133, 0.000451, 0.000682, -167.870199, -82.211403, -96.648204, , , 0.000000, , , 
09475, , 9.284123, 0.351529, -1.686268, -0.665256, 0.384911, -0.401456, 0.187762, 0.092570, 0.116404, -0.865234, -0.346191, 0.162842, 0.092831, 0.003585, -0.016902, 0.999999, 0.000939, 0.000463, 0.000582, -167.220412, -82.254813, -97.185429, , , 0.000000, , , 
09476, , 9.314810, 0.807254, -1.332988, -1.098664, -0.006467, -0.432545, 0.243235, 0.059427, 0.113079, -0.863281, -0.342041, 0.166992, 0.093140, 0.008141, -0.013348, 0.999999, 0.001216, 0.000297, 0.000565, -166.561417, -82.274036, -97.710207, , , 0.000000, , , 
09477, , 9.461152, 0.959019, -0.955723, -1.225096, -0.411268, -0.342920, 0.135764, 0.015299, 0.107483, -0.867432, -0.339844, 0.162842, 0.094606, 0.009648, -0.009558, 1.000000, 0.000679, 0.000076, 0.000537, -166.098979, -82.275155, -98.092595, , , 0.000000, , , 
09478, , 9.459047, 0.782683, -0.963816, -1.061219, -0.387242, -0.339622, 0.007852, -0.019256, 0.109237, -0.865234, -0.343994, 0.165039, 0.094587, 0.007879, -0.009629, 1.000000, 0.000039, -0.000096, 0.000546, -165.669684, -82.249890, -98.521648, , , 0.000000, , , 
09479, , 9.477573, 0.515102, -0.859555, -0.791998, -0.468468, -0.326813, -0.093423, -0.052927, 0.115540, -0.865479, -0.339844, 0.167236, 0.094775, 0.005202, -0.008573, 1.000000, -0.000467, -0.000265, 0.000578, -165.412780, -82.217023, -98.830707, , , 0.000000, , , 
09480, , 9.573809, 0.190374, -0.808586, -0.475340, -0.506858, -0.228064, -0.182138, -0.086699, 0.123535, -0.867676, -0.335693, 0.165039, 0.095740, 0.001956, -0.008046, 0.999999, -0.000911, -0.000433, 0.000618, -165.112894, -82.151658, -99.239090, , , 0.000000, , , 
09481, , 9.639145, -0.118691, -0.944308, -0.190408, -0.359555, -0.135220, -0.171028, -0.079259, 0.132969, -0.869629, -0.339844, 0.160889, 0.096396, -0.001131, -0.009404, 0.999999, -0.000855, -0.000396, 0.000665, -164.853512, -82.099192, -99.590649, , , 0.000000, , , 
09482, , 9.633602, -0.117881, -0.972461, -0.204137, -0.339452, -0.137515, -0.130050, -0.069930, 0.127562, -0.867432, -0.337891, 0.163086, 0.096340, -0.001124, -0.009690, 1.000000, -0.000650, -0.000350, 0.000638, -164.500281, -82.041841, -100.022835, , , 0.000000, , , 
09483, , 9.493146, -0.216568, -0.883428, -0.100973, -0.403550, -0.285143, -0.140903, -0.064056, 0.126014, -0.867432, -0.337891, 0.154541, 0.094936, -0.002112, -0.008802, 1.000000, -0.000705, -0.000320, 0.000630, -164.264021, -82.008602, -100.339674, , , 0.000000, , , 
09484, , 9.368082, -0.183828, -0.895657, -0.141133, -0.385879, -0.409065, -0.118299, -0.092310, 0.118088, -0.865479, -0.333740, 0.165039, 0.093686, -0.001788, -0.008912, 1.000000, -0.000591, -0.000462, 0.000590, -163.975343, -81.939873, -100.699992, , , 0.000000, , , 
09485, , 9.272782, -0.033549, -0.878263, -0.292278, -0.410979, -0.512009, -0.155933, -0.124749, 0.111602, -0.869629, -0.333740, 0.163086, 0.092733, -0.000291, -0.008725, 0.999999, -0.000780, -0.000624, 0.000558, -163.859843, -81.878600, -100.901354, , , 0.000000, , , 
09486, , 9.255971, -0.251386, -0.751536, -0.070617, -0.529149, -0.538207, -0.196336, -0.174500, 0.109008, -0.867676, -0.333740, 0.163086, 0.092568, -0.002471, -0.007432, 0.999999, -0.000982, -0.000873, 0.000545, -163.751434, -81.765914, -101.124899, , , 0.000000, , , 
09487, , 9.427352, -0.542726, -0.889839, 0.198379, -0.408214, -0.338760, -0.174152, -0.223361, 0.092390, -0.871826, -0.333740, 0.169434, 0.094286, -0.005391, -0.008788, 0.999999, -0.000871, -0.001117, 0.000462, -163.819334, -81.651372, -101.149607, , , 0.000000, , , 
09488, , 9.623785, -0.605476, -0.990224, 0.241277, -0.354279, -0.128648, -0.129204, -0.217347, 0.085496, -0.869629, -0.333740, 0.167236, 0.096251, -0.006020, -0.009794, 0.999999, -0.000646, -0.001087, 0.000427, -163.812260, -81.518908, -101.231982, , , 0.000000, , , 
09489, , 9.723501, -0.374889, -0.981011, 0.007597, -0.414793, -0.041441, -0.094564, -0.188591, 0.065454, -0.865479, -0.333740, 0.163086, 0.097245, -0.003722, -0.009717, 0.999999, -0.000473, -0.000943, 0.000327, -163.894441, -81.424598, -101.196681, , , 0.000000, , , 
09490, , 9.717768, -0.346264, -0.948771, -0.020999, -0.465700, -0.053705, -0.136853, -0.158899, 0.053033, -0.869873, -0.329590, 0.169434, 0.097186, -0.003443, -0.009408, 0.999999, -0.000684, -0.000794, 0.000265, -163.948858, -81.329468, -101.221329, , , 0.000000, , , 
09491, , 9.653435, -0.602684, -1.098290, 0.223249, -0.297842, -0.085420, -0.042911, -0.118494, 0.033221, -0.867920, -0.327393, 0.169434, 0.096542, -0.006013, -0.010924, 1.000000, -0.000215, -0.000592, 0.000166, -164.020425, -81.285839, -101.164558, , , 0.000000, , , 
09492, , 9.467912, -0.516956, -1.157651, 0.136417, -0.229421, -0.263996, 0.079262, -0.104272, 0.019564, -0.869873, -0.327393, 0.169434, 0.094686, -0.005156, -0.011529, 1.000000, 0.000396, -0.000521, 0.000098, -164.014008, -81.226160, -101.125510, , , 0.000000, , , 
09493, , 9.400053, -0.571457, -1.414117, 0.168558, 0.031776, -0.291246, 0.118462, -0.112987, 0.016277, -0.869873, -0.327393, 0.171387, 0.094009, -0.005699, -0.014091, 1.000000, 0.000592, -0.000565, 0.000081, -163.986656, -81.184620, -101.069874, , , 0.000000, , , 
09494, , 9.250908, -0.957520, -1.587023, 0.539247, 0.246045, -0.396561, 0.182616, -0.132163, 0.014658, -0.867920, -0.327393, 0.169434, 0.092520, -0.009554, -0.015818, 0.999999, 0.000913, -0.000661, 0.000073, -163.965718, -81.110383, -100.985576, , , 0.000000, , , 
09495, , 9.023021, -1.220614, -1.897060, 0.774382, 0.601951, -0.563817, 0.350724, -0.145282, 0.022363, -0.865723, -0.327393, 0.179932, 0.090245, -0.012163, -0.018926, 0.999998, 0.001754, -0.000726, 0.000112, -163.811974, -81.051623, -100.925553, , , 0.000000, , , 
09496, , 8.902609, -1.164264, -2.129436, 0.690983, 0.832653, -0.648864, 0.493824, -0.196590, 0.009237, -0.867920, -0.323486, 0.184082, 0.089048, -0.011586, -0.021235, 0.999996, 0.002469, -0.000983, 0.000046, -163.696434, -80.942932, -100.756483, , , 0.000000, , , 
09497, , 9.045580, -1.125132, -2.120346, 0.637124, 0.783625, -0.508696, 0.601430, -0.252390, 0.007030, -0.870117, -0.319336, 0.186279, 0.090483, -0.011185, -0.021123, 0.999995, 0.003007, -0.001262, 0.000035, -163.558504, -80.809215, -100.532612, , , 0.000000, , , 
09498, , 9.407307, -1.111978, -1.696835, 0.646973, 0.288011, -0.215210, 0.686872, -0.328510, 0.012221, -0.862061, -0.319336, 0.186279, 0.094101, -0.011056, -0.016852, 0.999993, 0.003434, -0.001643, 0.000061, -163.451046, -80.627584, -100.243096, , , 0.000000, , , 
09499, , 9.753802, -0.945227, -1.107375, 0.526347, -0.389920, 0.027395, 0.799793, -0.387427, 0.022415, -0.864258, -0.315186, 0.194580, 0.097560, -0.009397, -0.010922, 0.999990, 0.003999, -0.001937, 0.000112, -163.211716, -80.420218, -100.004093, , , 0.000000, , , 
09500, , 10.254644, -0.500802, -0.619145, 0.124213, -1.039825, 0.419371, 0.761363, -0.480212, 0.041323, -0.868408, -0.312988, 0.203125, 0.102562, -0.004964, -0.005964, 0.999990, 0.003807, -0.002401, 0.000207, -163.107845, -80.150820, -99.667239, , , 0.000000, , , 
09501, , 10.442387, -0.303992, -0.462467, -0.061354, -1.296250, 0.563509, 0.704761, -0.532411, 0.047004, -0.862061, -0.315186, 0.205078, 0.104436, -0.003000, -0.004357, 0.999990, 0.003524, -0.002662, 0.000235, -162.946389, -79.860745, -99.401000, , , 0.000000, , , 
09502, , 10.404147, -0.162118, -0.258704, -0.173151, -1.562808, 0.476474, 0.650312, -0.575464, 0.051404, -0.866455, -0.311035, 0.209473, 0.104049, -0.001587, -0.002293, 0.999991, 0.003252, -0.002877, 0.000257, -162.948811, -79.537630, -99.020125, , , 0.000000, , , 
09503, , 10.009993, -0.011666, -0.102432, -0.288840, -1.717949, 0.045078, 0.529289, -0.577026, 0.063349, -0.862549, -0.304932, 0.219971, 0.100102, -0.000083, -0.000736, 0.999992, 0.002646, -0.002885, 0.000317, -162.892450, -79.236275, -98.753772, , , 0.000000, , , 
09504, , 9.574378, 0.502270, 0.031032, -0.763117, -1.895659, -0.445414, 0.343264, -0.570267, 0.069477, -0.864502, -0.304932, 0.224121, 0.095741, 0.005055, 0.000592, 0.999994, 0.001716, -0.002851, 0.000347, -162.992318, -78.913055, -98.452061, , , 0.000000, , , 
09505, , 9.338175, 1.056105, 0.104481, -1.293257, -2.052484, -0.732912, 0.068131, -0.591097, 0.077192, -0.860352, -0.304932, 0.228271, 0.093374, 0.010597, 0.001324, 0.999996, 0.000341, -0.002955, 0.000386, -163.111070, -78.602956, -98.265496, , , 0.000000, , , 
09506, , 9.304426, 1.033673, 0.446569, -1.216864, -2.430373, -0.843156, -0.287652, -0.659723, 0.074568, -0.862549, -0.300781, 0.234619, 0.093025, 0.010378, 0.004758, 0.999993, -0.001438, -0.003299, 0.000373, -163.600371, -78.229396, -97.934542, , , 0.000000, , , 
09507, , 9.481777, 0.217694, 0.222570, -0.450032, -2.189909, -0.593013, -0.579276, -0.736193, 0.088024, -0.860596, -0.304932, 0.240723, 0.094808, 0.002226, 0.002568, 0.999989, -0.002896, -0.003681, 0.000440, -164.151212, -77.846725, -97.682611, , , 0.000000, , , 
09508, , 9.716125, -0.530070, -0.428739, 0.190251, -1.578811, -0.203395, -0.648289, -0.772909, 0.111287, -0.860596, -0.304932, 0.247070, 0.097180, -0.005260, -0.003895, 0.999987, -0.003241, -0.003865, 0.000556, -164.778257, -77.403870, -97.421190, , , 0.000000, , , 
09509, , 9.718013, -1.086960, -1.068680, 0.654617, -0.960261, -0.044773, -0.612010, -0.762922, 0.129508, -0.854248, -0.304932, 0.247070, 0.097227, -0.010839, -0.010283, 0.999988, -0.003060, -0.003815, 0.000648, -165.223837, -76.999878, -97.293290, , , 0.000000, , , 
09510, , 9.787849, -1.633839, -1.529182, 1.137715, -0.541079, 0.148345, -0.514627, -0.678783, 0.124424, -0.856445, -0.302979, 0.255371, 0.097940, -0.016316, -0.014917, 0.999991, -0.002573, -0.003394, 0.000622, -165.635998, -76.606433, -97.173024, , , 0.000000, , , 
09511, , 9.738880, -2.103208, -1.470609, 1.613985, -0.593086, 0.110765, -0.433413, -0.567573, 0.094243, -0.854248, -0.307129, 0.255371, 0.097440, -0.021018, -0.014384, 0.999994, -0.002167, -0.002838, 0.000471, -165.893605, -76.316539, -97.128029, , , 0.000000, , , 
09512, , 9.762090, -2.299726, -1.183821, 1.848165, -0.912612, 0.073654, -0.378395, -0.472816, 0.075040, -0.850098, -0.309082, 0.257568, 0.097657, -0.022983, -0.011564, 0.999995, -0.001892, -0.002364, 0.000375, -166.199860, -76.044183, -97.036089, , , 0.000000, , , 
09513, , 9.549271, -2.281393, -1.034969, 1.854068, -1.048555, -0.172807, -0.266534, -0.393151, 0.077858, -0.856445, -0.304932, 0.257568, 0.095522, -0.022790, -0.010132, 0.999997, -0.001333, -0.001966, 0.000389, -166.303683, -75.856768, -97.057351, , , 0.000000, , , 
09514, , 9.312582, -1.718135, -0.934644, 1.313026, -1.191669, -0.463598, -0.189584, -0.407083, 0.093064, -0.854248, -0.307129, 0.263672, 0.093153, -0.017147, -0.009141, 0.999997, -0.000948, -0.002035, 0.000465, -166.417905, -75.618526, -97.051748, , , 0.000000, , , 
09515, , 9.038586, -1.194134, -0.842109, 0.805745, -1.304553, -0.786067, -0.202230, -0.479812, 0.107739, -0.854248, -0.307129, 0.272217, 0.090412, -0.011901, -0.008192, 0.999996, -0.001011, -0.002399, 0.000539, -166.414950, -75.385056, -97.145416, , , 0.000000, , , 
09516, , 8.893769, -0.733231, -0.920335, 0.340109, -1.288989, -0.941025, -0.137626, -0.540798, 0.118216, -0.852295, -0.309326, 0.276367, 0.088966, -0.007286, -0.008958, 0.999996, -0.000688, -0.002704, 0.000591, -166.511475, -75.069054, -97.127313, , , 0.000000, , , 
09517, , 8.817369, -0.188907, -1.123688, -0.227578, -1.175610, -1.003019, -0.115328, -0.602122, 0.117420, -0.850098, -0.307129, 0.280518, 0.088208, -0.001844, -0.010970, 0.999995, -0.000577, -0.003011, 0.000587, -166.526838, -74.755988, -97.145421, , , 0.000000, , , 
09518, , 8.843109, 0.060600, -1.276688, -0.495990, -1.117825, -0.961793, -0.185298, -0.676232, 0.111465, -0.845947, -0.311279, 0.288818, 0.088473, 0.000644, -0.012468, 0.999994, -0.000926, -0.003381, 0.000557, -166.724682, -74.365346, -97.050441, , , 0.000000, , , 
09519, , 8.892077, 0.038669, -1.100601, -0.457095, -1.354054, -0.967401, -0.324060, -0.724683, 0.098688, -0.845947, -0.311279, 0.291016, 0.088960, 0.000413, -0.010684, 0.999992, -0.001620, -0.003623, 0.000493, -166.979072, -73.984443, -96.943962, , , 0.000000, , , 
09520, , 8.996054, -0.385692, -1.105081, -0.036905, -1.404624, -0.850311, -0.391157, -0.780775, 0.085672, -0.843994, -0.309326, 0.297119, 0.090004, -0.003840, -0.010692, 0.999990, -0.001956, -0.003904, 0.000428, -167.372119, -73.538403, -96.768101, , , 0.000000, , , 
09521, , 8.948593, -0.518375, -1.365350, 0.072988, -1.197565, -0.825462, -0.464839, -0.828969, 0.080888, -0.843750, -0.315674, 0.305420, 0.089544, -0.005179, -0.013270, 0.999989, -0.002324, -0.004145, 0.000404, -167.772686, -73.105598, -96.596307, , , 0.000000, , , 
09522, , 9.009585, -0.575616, -1.390779, 0.133163, -1.267482, -0.767616, -0.627906, -0.931728, 0.081201, -0.843994, -0.309326, 0.305664, 0.090162, -0.005762, -0.013470, 0.999984, -0.003140, -0.004659, 0.000406, -168.335555, -72.574752, -96.383807, , , 0.000000, , , 
09523, , 9.322194, -0.678124, -1.253059, 0.246530, -1.567082, -0.516667, -0.725190, -0.991230, 0.086641, -0.839844, -0.313477, 0.315918, 0.093285, -0.006785, -0.012044, 0.999981, -0.003626, -0.004956, 0.000433, -168.895334, -72.053435, -96.205672, , , 0.000000, , , 
09524, , 9.501389, -0.556983, -1.044472, 0.146411, -1.925716, -0.434687, -0.713424, -0.999146, 0.101560, -0.829590, -0.309570, 0.320312, 0.095067, -0.005558, -0.009950, 0.999981, -0.003567, -0.004996, 0.000508, -169.450044, -71.481338, -96.052057, , , 0.000000, , , 
09525, , 9.501577, -0.271895, -0.769580, -0.111819, -2.293978, -0.556850, -0.674682, -0.993667, 0.113552, -0.829590, -0.313721, 0.326416, 0.095054, -0.002690, -0.007214, 0.999982, -0.003373, -0.004968, 0.000568, -169.879631, -70.952416, -95.961244, , , 0.000000, , , 
09526, , 9.565447, -0.114169, -0.598839, -0.257229, -2.578882, -0.584912, -0.752418, -0.993051, 0.120898, -0.831299, -0.323975, 0.326172, 0.095683, -0.001105, -0.005509, 0.999980, -0.003762, -0.004965, 0.000604, -170.387258, -70.381092, -95.880141, , , 0.000000, , , 
09527, , 9.570997, -0.235248, -0.589753, -0.136184, -2.667206, -0.599990, -0.849209, -1.005216, 0.121972, -0.827148, -0.319824, 0.336670, 0.095739, -0.002318, -0.005406, 0.999978, -0.004246, -0.005026, 0.000610, -170.907063, -69.857497, -95.817893, , , 0.000000, , , 
09528, , 9.634732, -0.187966, -0.682887, -0.191446, -2.697367, -0.538179, -0.931615, -0.979757, 0.111601, -0.824951, -0.328125, 0.344971, 0.096380, -0.001856, -0.006348, 0.999977, -0.004658, -0.004899, 0.000558, -171.495317, -69.294175, -95.759767, , , 0.000000, , , 
09529, , 9.727517, -0.359514, -1.079953, -0.041211, -2.435495, -0.326590, -1.048513, -0.945206, 0.099311, -0.818848, -0.328369, 0.347168, 0.097326, -0.003602, -0.010321, 0.999975, -0.005243, -0.004726, 0.000497, -172.122458, -68.806358, -95.701812, , , 0.000000, , , 
09530, , 9.708630, -0.399922, -1.859161, -0.025792, -1.791951, -0.083275, -1.025552, -0.884146, 0.092075, -0.812500, -0.332520, 0.351318, 0.097169, -0.004048, -0.018141, 0.999977, -0.005128, -0.004421, 0.000460, -172.740769, -68.298511, -95.668810, , , 0.000000, , , 
09531, , 9.741599, -0.042291, -2.502322, -0.390309, -1.287880, 0.154791, -0.932779, -0.789104, 0.077926, -0.818359, -0.340576, 0.351074, 0.097514, -0.000500, -0.024636, 0.999981, -0.004664, -0.003945, 0.000390, -173.290777, -67.898779, -95.615708, , , 0.000000, , , 
09532, , 9.392688, 0.330296, -2.761137, -0.737127, -0.994151, -0.095515, -0.996507, -0.727578, 0.065316, -0.810059, -0.340820, 0.357422, 0.094025, 0.003197, -0.027286, 0.999981, -0.004983, -0.003638, 0.000327, -173.879090, -67.481623, -95.596937, , , 0.000000, , , 
09533, , 9.409649, 0.272963, -2.708177, -0.653641, -1.108100, -0.102145, -1.151211, -0.745444, 0.058994, -0.810059, -0.342773, 0.351074, 0.094196, 0.002603, -0.026746, 0.999976, -0.005756, -0.003727, 0.000295, -174.574533, -67.114396, -95.545462, , , 0.000000, , , 
09534, , 9.882110, -0.008963, -2.684434, -0.364179, -1.386932, 0.326625, -1.214453, -0.720941, 0.061334, -0.809814, -0.349121, 0.355225, 0.098917, -0.000221, -0.026487, 0.999975, -0.006072, -0.003605, 0.000307, -175.269131, -66.701207, -95.546834, , , 0.000000, , , 
09535, , 10.375041, 0.139227, -2.524335, -0.505898, -1.785566, 0.703417, -1.234837, -0.701824, 0.072504, -0.809814, -0.353271, 0.355225, 0.103838, 0.001276, -0.024887, 0.999975, -0.006174, -0.003509, 0.000363, -175.962227, -66.367752, -95.553738, , , 0.000000, , , 
09536, , 11.155331, 0.384469, -2.159475, -0.767314, -2.495378, 1.252411, -1.420361, -0.687766, 0.076933, -0.803223, -0.361572, 0.354980, 0.111625, 0.003736, -0.021238, 0.999969, -0.007102, -0.003439, 0.000385, -176.728964, -65.973232, -95.605304, , , 0.000000, , , 
09537, , 11.773599, 0.403838, -1.526659, -0.812011, -3.376946, 1.547237, -1.573111, -0.617618, 0.076532, -0.805420, -0.363525, 0.363281, 0.117781, 0.003965, -0.014934, 0.999964, -0.007865, -0.003088, 0.000383, -177.600779, -65.691823, -95.641842, , , 0.000000, , , 
09538, , 11.492314, 0.115171, -0.709700, -0.545007, -4.082421, 0.940300, -1.590570, -0.525215, 0.051462, -0.801025, -0.367676, 0.354980, 0.114941, 0.001126, -0.006804, 0.999965, -0.007953, -0.002626, 0.000257, -178.466364, -65.391796, -95.692305, , , 0.000000, , , 
09539, , 11.014030, -0.474161, 0.080280, 0.014118, -4.686697, 0.166015, -1.599307, -0.468896, -0.002444, -0.804932, -0.377930, 0.352539, 0.110138, -0.004735, 0.001099, 0.999965, -0.007996, -0.002344, -0.000012, -179.410853, -65.195592, -95.648252, , , 0.000000, , , 
09540, , 11.054299, -1.412695, -0.002011, 0.951581, -4.770490, 0.213765, -1.668674, -0.412550, -0.066901, -0.798584, -0.384277, 0.348389, 0.110538, -0.014162, 0.000326, 0.999963, -0.008343, -0.002063, -0.000335, 179.553136, -64.961090, -95.560362, , , 0.000000, , , 
09541, , 11.338257, -1.907450, -0.245748, 1.465622, -4.771145, 0.547935, -1.634191, -0.366979, -0.131986, -0.796143, -0.392578, 0.342041, 0.113374, -0.019167, -0.002093, 0.999965, -0.008171, -0.001835, -0.000660, 178.432503, -64.837346, -95.361691, , , 0.000000, , , 
09542, , 11.880608, -2.160688, -1.070025, 1.805418, -4.358931, 1.354317, -1.394474, -0.373254, -0.158562, -0.794189, -0.392578, 0.346191, 0.118808, -0.021774, -0.010327, 0.999974, -0.006972, -0.001866, -0.000793, 177.459962, -64.622348, -95.170107, , , 0.000000, , , 
09543, , 12.385867, -2.043319, -1.847456, 1.798341, -3.911158, 2.123238, -0.985548, -0.341463, -0.155468, -0.793701, -0.400879, 0.339844, 0.123874, -0.020619, -0.018162, 0.999986, -0.004928, -0.001707, -0.000777, 176.710722, -64.512628, -94.950953, , , 0.000000, , , 
09544, , 12.406609, -1.646951, -1.344353, 1.363095, -4.367349, 1.913850, -0.701766, -0.263713, -0.164159, -0.791504, -0.406982, 0.343994, 0.124070, -0.016618, -0.013222, 0.999993, -0.003509, -0.001319, -0.000821, 176.134075, -64.358044, -94.757874, , , 0.000000, , , 
09545, , 13.017105, -1.695176, 0.137481, 1.205978, -5.981641, 1.810689, -0.689105, -0.258442, -0.227136, -0.789307, -0.409180, 0.335449, 0.130150, -0.017094, 0.001602, 0.999993, -0.003446, -0.001292, -0.001136, 175.475816, -64.294934, -94.452689, , , 0.000000, , , 
09546, , 13.974998, -2.817049, 1.044790, 2.172720, -7.406874, 2.218323, -0.793373, -0.103044, -0.301191, -0.789307, -0.415283, 0.333252, 0.139702, -0.028339, 0.010632, 0.999991, -0.003967, -0.000515, -0.001506, 174.676555, -64.223467, -94.070540, , , 0.000000, , , 
09547, , 15.082192, -4.181579, 0.936004, 3.547995, -7.991149, 3.202199, -0.556815, 0.166768, -0.364571, -0.782959, -0.419434, 0.326904, 0.150753, -0.042065, 0.009351, 0.999994, -0.002784, 0.000834, -0.001823, 173.889382, -64.408972, -93.531679, , , 0.000000, , , 
09548, , 15.849905, -4.485715, 0.525726, 3.956566, -7.969695, 4.059808, -0.130878, 0.561921, -0.401429, -0.784912, -0.417480, 0.329102, 0.158423, -0.045172, 0.004842, 0.999994, -0.000654, 0.002810, -0.002007, 173.259007, -64.705487, -92.917282, , , 0.000000, , , 
09549, , 15.681244, -3.702610, 0.001155, 3.363880, -7.167435, 4.220139, 0.336022, 0.992104, -0.397916, -0.786865, -0.421387, 0.318604, 0.156736, -0.037337, -0.000829, 0.999984, 0.001680, 0.004960, -0.001990, 172.824533, -65.357956, -92.163355, , , 0.000000, , , 
09550, , 15.463868, -2.355836, -0.413154, 2.193287, -6.322665, 4.331582, 0.658039, 1.432497, -0.367791, -0.792969, -0.425537, 0.310059, 0.154560, -0.023826, -0.005317, 0.999967, 0.003290, 0.007162, -0.001839, 172.505200, -66.147527, -91.400344, , , 0.000000, , , 
09551, , 15.584139, -0.632761, -0.323275, 0.577506, -5.924395, 4.607078, 0.916017, 2.006027, -0.364232, -0.799316, -0.423340, 0.301758, 0.155786, -0.006592, -0.004825, 0.999938, 0.004580, 0.010030, -0.001821, 172.204783, -67.386537, -90.431483, , , 0.000000, , , 
09552, , 15.105385, 1.314798, 0.823450, -1.399821, -6.216765, 3.969859, 1.104679, 2.678277, -0.415280, -0.805176, -0.427490, 0.282959, 0.151174, 0.012796, 0.006282, 0.999893, 0.005523, 0.013391, -0.002076, 171.715892, -68.875325, -89.223520, , , 0.000000, , , 
09553, , 14.145858, 3.166465, 1.997753, -3.247026, -6.365500, 2.956191, 1.188183, 3.199043, -0.557003, -0.811279, -0.427246, 0.251465, 0.141843, 0.031160, 0.017897, 0.999851, 0.005941, 0.015994, -0.002785, 170.777783, -70.770874, -87.421191, , , 0.000000, , , 
09554, , 13.560910, 4.109724, 2.533718, -4.091195, -6.218926, 2.507069, 1.056066, 3.555167, -0.716088, -0.815186, -0.433350, 0.232666, 0.136179, 0.040484, 0.023135, 0.999822, 0.005280, 0.017775, -0.003580, 169.077904, -72.707729, -84.995139, , , 0.000000, , , 
09555, , 13.208766, 3.002592, 1.347963, -2.691736, -4.661899, 2.689452, 0.719106, 3.896919, -0.787885, -0.817139, -0.435547, 0.205566, 0.132435, 0.029462, 0.011008, 0.999796, 0.003595, 0.019483, -0.003939, 166.200817, -74.937818, -81.491264, , , 0.000000, , , 
09556, , 13.164685, 1.225302, -0.699491, -0.574469, -2.340852, 3.205139, 0.736422, 4.267912, -0.717679, -0.822998, -0.441406, 0.169922, 0.131501, 0.011813, -0.009758, 0.999759, 0.003682, 0.021338, -0.003588, 162.353771, -77.184638, -77.094609, , , 0.000000, , , 
09557, , 13.192433, 0.092331, -2.142205, 0.802770, -0.430075, 3.520665, 0.843282, 4.491813, -0.513494, -0.831055, -0.445557, 0.136230, 0.131401, 0.000684, -0.024374, 0.999736, 0.004216, 0.022457, -0.002567, 156.832144, -79.624507, -70.854297, , , 0.000000, , , 
09558, , 14.148234, -0.834192, -3.426461, 1.945269, 1.225432, 4.584862, 0.650265, 4.337939, -0.217652, -0.831055, -0.445557, 0.109131, 0.140685, -0.008377, -0.037349, 0.999759, 0.003251, 0.021688, -0.001088, 149.670344, -81.795345, -63.222421, , , 0.000000, , , 
09559, , 15.997484, -1.634928, -4.463900, 2.944097, 2.665110, 6.395648, 0.545319, 4.021160, 0.115865, -0.839111, -0.445312, 0.071533, 0.159043, -0.016129, -0.047887, 0.999794, 0.002726, 0.020104, 0.000579, 139.077277, -83.816595, -52.126488, , , 0.000000, , , 
09560, , 16.944496, -1.730262, -4.587292, 3.070201, 3.374640, 7.225484, 0.728792, 3.824913, 0.302813, -0.841309, -0.441162, 0.048584, 0.168551, -0.016872, -0.049164, 0.999809, 0.003644, 0.019123, 0.001514, 123.110825, -85.406148, -35.673361, , , 0.000000, , , 
09561, , 17.252402, -1.310386, -4.170902, 2.580212, 3.671668, 7.408868, 0.719257, 3.736924, 0.370892, -0.847412, -0.436768, 0.019531, 0.171728, -0.012627, -0.044969, 0.999817, 0.003596, 0.018683, 0.001854, 94.344677, -86.357763, -6.325463, , , 0.000000, , , 
09562, , 17.157945, -1.370528, -3.666251, 2.540418, 3.819193, 7.176673, 0.524757, 3.705278, 0.395748, -0.843506, -0.432617, -0.011963, 0.170887, -0.013265, -0.039868, 0.999823, 0.002624, 0.018525, 0.001979, 61.789612, -86.130492, 26.595936, , , 0.000000, , , 
09563, , 16.512223, -1.264510, -3.025433, 2.292036, 3.831553, 6.418054, 0.701878, 3.748506, 0.432206, -0.845459, -0.430420, -0.036865, 0.164543, -0.012176, -0.033385, 0.999816, 0.003509, 0.018741, 0.002161, 38.122001, -84.839460, 50.840725, , , 0.000000, , , 
09564, , 15.413166, -1.044530, -2.382689, 1.905357, 3.725099, 5.247060, 0.878891, 3.811626, 0.546669, -0.845459, -0.426270, -0.063965, 0.153667, -0.009911, -0.026803, 0.999805, 0.004394, 0.019057, 0.002733, 25.173076, -83.129795, 64.364322, , , 0.000000, , , 
09565, , 14.246348, -0.990082, -1.964572, 1.672578, 3.777387, 3.996885, 0.939466, 3.880394, 0.657558, -0.845459, -0.422119, -0.093262, 0.142077, -0.009332, -0.022450, 0.999795, 0.004697, 0.019401, 0.003288, 17.155907, -81.103849, 73.103472, , , 0.000000, , , 
09566, , 13.249353, -1.356644, -1.570683, 1.872574, 3.776813, 2.917449, 1.143258, 3.949326, 0.792689, -0.841309, -0.415771, -0.126465, 0.132200, -0.012942, -0.018395, 0.999781, 0.005716, 0.019745, 0.003963, 12.040037, -79.022466, 78.959935, , , 0.000000, , , 
09567, , 11.808204, -2.048460, -0.972323, 2.387413, 3.448884, 1.454932, 1.222719, 3.974840, 0.874302, -0.837402, -0.409424, -0.147217, 0.117944, -0.019899, -0.012191, 0.999774, 0.006113, 0.019873, 0.004371, 8.497681, -76.786906, 83.393706, , , 0.000000, , , 
09568, , 10.609389, -2.621916, -0.598457, 2.814429, 3.285444, 0.240103, 1.444987, 3.904952, 0.919122, -0.841553, -0.403320, -0.170166, 0.106066, -0.025678, -0.008243, 0.999773, 0.007224, 0.019523, 0.004595, 6.153756, -74.630555, 86.664941, , , 0.000000, , , 
09569, , 9.881839, -1.058806, -0.148468, 1.138837, 3.002330, -0.406867, 2.097405, 3.735055, 0.891055, -0.831055, -0.405273, -0.191162, 0.098812, -0.010119, -0.003438, 0.999761, 0.010486, 0.018674, 0.004455, 4.911199, -72.493235, 89.316384, , , 0.000000, , , 
09570, , 9.059224, 0.978364, -0.320098, -1.020148, 3.097408, -1.298791, 2.594937, 3.602359, 0.811280, -0.829102, -0.403076, -0.214111, 0.090476, 0.010205, -0.004701, 0.999745, 0.012974, 0.018010, 0.004056, 4.508823, -70.470611, 91.307152, , , 0.000000, , , 
09571, , 8.214443, 1.686443, -1.189211, -1.919765, 3.800908, -2.491689, 2.342188, 3.496714, 0.708239, -0.816650, -0.401123, -0.232910, 0.081861, 0.017304, -0.013124, 0.999772, 0.011710, 0.017482, 0.003541, 4.393086, -68.461071, 92.956176, , , 0.000000, , , 
09572, , 7.126023, 0.763068, -2.235690, -1.231424, 4.659158, -4.056696, 2.396623, 3.291918, 0.611347, -0.816406, -0.403076, -0.243164, 0.070856, 0.008124, -0.023430, 0.999788, 0.011982, 0.016458, 0.003057, 4.565922, -66.604491, 94.253618, , , 0.000000, , , 
09573, , 6.787782, 1.326346, -1.170644, -1.730447, 3.618991, -4.058635, 2.388882, 3.010295, 0.486111, -0.810059, -0.407227, -0.258057, 0.067660, 0.013575, -0.012565, 0.999812, 0.011944, 0.015051, 0.002430, 5.046367, -64.878745, 95.327301, , , 0.000000, , , 
09574, , 6.373966, 1.281600, -0.479232, -1.624959, 2.961561, -4.237189, 1.850019, 2.783181, 0.395991, -0.797607, -0.407227, -0.272461, 0.063640, 0.012991, -0.005559, 0.999858, 0.009250, 0.013915, 0.001980, 5.344316, -63.307700, 96.173008, , , 0.000000, , , 
09575, , 5.764924, 0.471828, -0.480498, -0.858764, 2.960510, -4.894958, 1.427944, 2.540780, 0.296343, -0.791260, -0.411377, -0.285156, 0.057575, 0.004841, -0.005502, 0.999893, 0.007139, 0.012703, 0.001482, 5.631798, -61.859360, 96.871957, , , 0.000000, , , 
09576, , 5.376929, 0.264850, -0.966816, -0.780886, 3.337580, -5.550557, 1.375911, 2.282373, 0.178238, -0.782715, -0.415527, -0.297607, 0.053652, 0.002766, -0.010262, 0.999911, 0.006879, 0.011412, 0.000891, 5.994835, -60.565289, 97.355784, , , 0.000000, , , 
09577, , 4.897087, 1.025517, -1.219139, -1.590491, 3.221234, -6.123150, 1.334727, 2.082098, 0.090971, -0.782715, -0.419678, -0.306152, 0.048836, 0.010361, -0.012631, 0.999923, 0.006673, 0.010410, 0.000455, 6.528833, -59.375890, 97.734744, , , 0.000000, , , 
09578, , 4.497437, 1.381007, -1.755782, -2.068215, 3.429096, -6.782815, 1.256969, 1.920705, 0.053206, -0.774414, -0.419678, -0.314453, 0.044800, 0.013934, -0.017901, 0.999934, 0.006285, 0.009603, 0.000266, 6.985808, -58.283212, 98.040929, , , 0.000000, , , 
09579, , 3.970001, 1.537656, -1.755161, -2.218603, 3.139214, -7.277203, 1.341160, 1.781285, -0.004273, -0.767822, -0.430176, -0.316650, 0.039543, 0.015495, -0.017801, 0.999938, 0.006706, 0.008906, -0.000021, 7.623445, -57.274380, 98.299446, , , 0.000000, , , 
09580, , 3.346478, 1.891656, -1.432138, -2.457472, 2.467007, -7.644074, 1.428869, 1.561066, -0.069800, -0.761475, -0.434326, -0.318848, 0.033359, 0.019008, -0.014446, 0.999944, 0.007144, 0.007805, -0.000349, 8.314116, -56.379657, 98.450986, , , 0.000000, , , 
09581, , 3.110881, 2.131282, -1.447240, -2.694661, 2.281170, -7.850686, 1.437509, 1.330147, -0.093842, -0.761230, -0.444580, -0.327393, 0.031022, 0.021403, -0.014525, 0.999952, 0.007187, 0.006651, -0.000469, 9.137596, -55.637911, 98.572681, , , 0.000000, , , 
09582, , 2.913255, 2.317814, -1.398648, -2.859808, 2.072788, -7.984972, 1.358260, 1.137347, -0.079210, -0.754883, -0.446777, -0.325195, 0.029062, 0.023262, -0.013994, 0.999961, 0.006791, 0.005687, -0.000396, 9.826765, -54.984330, 98.679671, , , 0.000000, , , 
09583, , 2.780964, 2.542131, -1.147663, -3.001913, 1.724557, -7.934463, 1.171602, 0.903164, -0.063449, -0.748535, -0.450928, -0.335693, 0.027766, 0.025480, -0.011453, 0.999973, 0.005858, 0.004516, -0.000317, 10.488599, -54.475129, 98.784033, , , 0.000000, , , 
09584, , 2.678939, 2.747024, -0.812354, -3.091994, 1.339200, -7.805479, 0.878166, 0.668553, -0.054538, -0.744385, -0.453125, -0.329590, 0.026770, 0.027499, -0.008092, 0.999985, 0.004391, 0.003343, -0.000273, 10.936983, -54.089587, 98.850242, , , 0.000000, , , 
09585, , 2.923240, 2.656966, -0.648005, -2.981099, 1.376140, -7.522710, 0.481118, 0.434456, -0.016625, -0.744141, -0.457031, -0.331787, 0.029221, 0.026583, -0.006480, 0.999995, 0.002406, 0.002172, -0.000083, 11.195918, -53.829489, 98.939803, , , 0.000000, , , 
09586, , 2.932936, 2.525014, -0.149316, -2.701705, 1.048006, -7.243139, 0.077994, 0.197253, -0.024466, -0.742188, -0.457031, -0.331787, 0.029331, 0.025247, -0.001512, 0.999999, 0.000390, 0.000986, -0.000122, 11.231004, -53.712520, 98.950493, , , 0.000000, , , 
09587, , 3.141677, 2.235817, 0.419286, -2.269587, 0.834464, -6.779957, -0.257704, -0.066031, -0.021925, -0.746338, -0.455078, -0.333740, 0.031418, 0.022360, 0.004174, 0.999999, -0.001289, -0.000330, -0.000110, 11.133313, -53.730838, 98.940844, , , 0.000000, , , 
09588, , 3.433983, 2.103940, 0.825888, -2.046206, 0.740883, -6.324847, -0.449600, -0.275724, -0.029392, -0.744141, -0.459229, -0.338135, 0.034332, 0.021053, 0.008259, 0.999997, -0.002248, -0.001379, -0.000147, 10.941356, -53.879288, 98.858322, , , 0.000000, , , 
09589, , 3.649497, 1.811942, 1.444470, -1.601431, 0.482395, -5.826316, -0.555907, -0.437002, -0.001261, -0.752686, -0.452881, -0.329590, 0.036463, 0.018159, 0.014474, 0.999994, -0.002780, -0.002185, -0.000006, 10.705491, -54.106389, 98.797887, , , 0.000000, , , 
09590, , 3.916901, 1.055238, 2.189401, -0.687871, 0.281187, -5.263311, -0.664178, -0.597523, 0.049850, -0.754639, -0.450928, -0.331543, 0.039101, 0.010635, 0.021976, 0.999990, -0.003321, -0.002988, 0.000249, 10.374815, -54.444820, 98.735300, , , 0.000000, , , 
09591, , 4.408587, -0.229249, 3.328708, 0.818891, 0.034775, -4.344923, -0.757734, -0.815862, 0.093930, -0.760986, -0.450928, -0.331543, 0.043951, -0.002145, 0.033475, 0.999984, -0.003789, -0.004079, 0.000470, 9.998222, -54.898405, 98.707437, , , 0.000000, , , 
09592, , 5.136679, -1.964066, 4.671947, 2.789129, -0.155217, -3.159411, -0.614598, -1.100585, 0.143262, -0.763184, -0.444580, -0.327393, 0.051122, -0.019460, 0.047061, 0.999980, -0.003073, -0.005503, 0.000716, 9.686844, -55.530392, 98.656672, , , 0.000000, , , 
09593, , 6.687313, -3.147273, 6.480557, 4.313083, -0.450422, -0.991319, 0.047996, -1.227705, 0.198225, -0.771484, -0.448730, -0.316895, 0.066505, -0.031422, 0.065207, 0.999981, 0.000240, -0.006138, 0.000991, 9.735955, -56.225385, 98.669777, , , 0.000000, , , 
09594, , 7.912710, -2.194570, 8.742536, 4.010866, -1.924762, 1.325797, 0.833708, -1.150409, 0.221953, -0.777832, -0.446777, -0.302490, 0.078647, -0.022224, 0.087786, 0.999974, 0.004169, -0.005752, 0.001110, 10.198904, -56.893220, 98.686331, , , 0.000000, , , 
09595, , 9.450917, -0.204372, 11.308217, 2.851930, -3.806709, 4.137601, 0.751710, -1.060770, 0.276358, -0.783936, -0.446777, -0.287842, 0.093911, -0.002340, 0.113573, 0.999978, 0.003759, -0.005304, 0.001382, 10.561461, -57.500770, 98.805654, , , 0.000000, , , 
09596, , 10.633168, 0.269411, 13.088071, 2.923320, -4.877429, 6.064858, 0.170218, -1.094774, 0.259519, -0.788086, -0.446777, -0.285645, 0.105610, 0.002720, 0.131462, 0.999984, 0.000851, -0.005474, 0.001298, 10.612122, -58.141282, 98.859948, , , 0.000000, , , 
09597, , 11.879346, 0.472251, 14.091899, 2.992495, -5.267412, 7.600488, 0.135735, -1.207234, 0.205508, -0.796387, -0.446533, -0.277344, 0.117935, 0.004748, 0.141636, 0.999981, 0.000679, -0.006036, 0.001028, 10.708402, -58.818641, 98.880778, , , 0.000000, , , 
09598, , 12.866292, 1.523766, 13.866894, 1.905752, -5.127950, 8.359291, 0.088097, -1.347297, 0.163848, -0.796387, -0.448730, -0.256592, 0.127712, 0.015281, 0.139538, 0.999977, 0.000440, -0.006736, 0.000819, 10.848809, -59.591118, 98.775036, , , 0.000000, , , 
09599, , 12.611036, 1.559168, 12.090731, 1.354176, -4.066528, 7.195514, -0.582108, -1.419587, 0.170529, -0.806885, -0.444580, -0.254395, 0.125235, 0.016052, 0.121752, 0.999970, -0.002911, -0.007098, 0.000853, 10.607430, -60.377787, 98.717703, , , 0.000000, , , 
09600, , 12.387962, 0.376146, 9.180830, 1.553967, -1.673512, 5.440865, -0.824505, -1.332365, 0.252494, -0.813232, -0.442383, -0.250244, 0.123259, 0.004298, 0.092614, 0.999969, -0.004122, -0.006662, 0.001262, 10.128951, -61.151343, 98.723633, , , 0.000000, , , 
09601, , 13.051363, -0.335477, 7.320533, 1.580895, 0.216748, 5.069945, -0.143015, -0.905107, 0.410102, -0.815430, -0.440430, -0.245850, 0.130187, -0.003035, 0.073797, 0.999987, -0.000715, -0.004526, 0.002050, 9.780715, -61.669159, 99.078321, , , 0.000000, , , 
09602, , 13.610726, -0.821394, 6.627917, 1.767398, 1.127594, 5.202659, 0.894677, -0.009001, 0.609955, -0.819580, -0.438232, -0.241699, 0.136129, -0.008095, 0.066249, 0.999985, 0.004473, -0.000045, 0.003050, 9.658171, -61.729850, 99.798707, , , 0.000000, , , 
09603, , 13.232690, 0.131762, 5.936598, 0.665319, 1.280921, 4.619238, 2.310160, 0.647162, 0.772407, -0.821777, -0.438232, -0.233398, 0.132513, 0.001147, 0.058951, 0.999921, 0.011550, 0.003236, 0.003862, 10.051275, -61.407626, 100.903162, , , 0.000000, , , 
09604, , 16.281468, 1.412490, 1.877953, -2.207515, 5.627296, 5.486590, 3.305825, 0.285006, 0.884461, -0.828125, -0.436279, -0.220703, 0.162778, 0.014534, 0.018786, 0.999853, 0.016528, 0.001425, 0.004422, 10.980857, -61.336125, 102.001041, , , 0.000000, , , 
09605, , 19.743960, 0.494645, 1.789035, -1.816433, 7.598804, 8.414397, 2.095452, -0.327617, 0.723728, -0.834229, -0.434082, -0.212402, 0.197391, 0.005471, 0.018269, 0.999937, 0.010477, -0.001638, 0.003619, 11.494755, -61.574173, 102.825145, , , 0.000000, , , 
09606, , 17.183861, -4.549649, -0.045803, 2.290925, 9.730773, 4.885891, 0.780507, -0.662893, 0.751000, -0.840576, -0.436279, -0.197754, 0.172008, -0.044850, -0.000064, 0.999980, 0.003903, -0.003314, 0.003755, 11.298024, -62.028047, 103.554823, , , 0.000000, , , 
09607, , 11.112866, -2.764803, -1.013676, 0.864146, 6.953058, -0.698139, 1.724667, -0.703050, 0.601377, -0.842773, -0.434326, -0.187500, 0.111246, -0.027227, -0.009982, 0.999952, 0.008623, -0.003515, 0.003007, 11.785898, -62.475405, 104.146989, , , 0.000000, , , 
09608, , 5.446023, 2.666887, -1.947375, -3.836642, 2.828320, -5.588527, 2.463171, -0.427803, 0.247953, -0.851074, -0.434326, -0.170654, 0.054468, 0.026973, -0.019026, 0.999921, 0.012316, -0.002139, 0.001240, 13.033908, -62.741798, 104.329944, , , 0.000000, , , 
09609, , -0.089104, 6.922961, -4.364533, -8.078899, 0.313655, -11.083951, 1.518584, -0.961217, 0.122967, -0.846924, -0.434326, -0.156006, -0.000726, 0.069558, -0.043122, 0.999959, 0.007593, -0.004806, 0.000615, 14.010892, -63.283669, 104.229361, , , 0.000000, , , 
09610, , -2.563358, 8.591180, -2.041003, -8.253033, -3.354098, -12.089064, -0.068946, -2.006301, 0.939068, -0.857666, -0.423828, -0.135010, -0.025830, 0.085784, -0.020698, 0.999939, -0.000345, -0.010031, 0.004695, 13.464502, -64.524536, 104.792815, , , 0.000000, , , 
09611, , 3.118646, 2.855296, -2.182953, -3.853840, 1.714259, -7.609727, -1.890194, -2.938058, 1.743831, -0.873047, -0.401123, -0.122070, 0.031256, 0.028620, -0.021641, 0.999809, -0.009450, -0.014689, 0.008719, 11.035795, -66.372262, 106.299878, , , 0.000000, , , 
09612, , 11.194641, -3.427103, -3.051756, 0.502955, 8.119402, -0.858305, -2.989055, -3.049552, 1.867990, -0.885742, -0.386475, -0.111572, 0.112705, -0.033655, -0.028297, 0.999728, -0.014944, -0.015246, 0.009339, 7.471636, -68.265688, 108.305219, , , 0.000000, , , 
09613, , 15.027316, -7.812279, -4.592148, 3.493708, 12.221660, 2.284134, -1.733830, -2.956586, 0.877966, -0.888428, -0.376221, -0.080078, 0.151266, -0.077842, -0.043014, 0.999844, -0.008669, -0.014782, 0.004390, 5.687863, -70.003073, 109.171173, , , 0.000000, , , 
09614, , 15.677057, -5.857934, -3.040105, 2.342612, 9.950853, 3.781865, 1.552604, -2.354710, 0.491439, -0.888428, -0.374268, -0.059082, 0.157260, -0.057965, -0.029003, 0.999898, 0.007763, -0.011773, 0.002457, 6.182053, -71.370815, 109.589270, , , 0.000000, , , 
09615, , 12.737503, -0.989612, -0.383655, -0.596042, 4.474727, 2.145036, 1.536566, -2.004203, 0.204908, -0.886475, -0.374268, -0.042480, 0.127415, -0.009742, -0.002635, 0.999920, 0.007683, -0.010021, 0.001025, 7.102742, -72.533094, 109.550419, , , 0.000000, , , 
09616, , 9.645054, -0.652814, 0.930753, 0.047998, 2.138779, -0.339572, -0.014476, -1.914836, 0.277944, -0.890869, -0.370361, -0.019287, 0.096364, -0.006393, 0.010231, 0.999953, -0.000072, -0.009574, 0.001390, 7.024853, -73.638147, 109.622284, , , 0.000000, , , 
09617, , 7.440565, -2.735171, 0.892313, 2.154618, 2.352166, -2.500887, -0.170616, -1.930417, 0.322915, -0.893066, -0.362061, -0.004639, 0.074359, -0.027224, 0.009664, 0.999952, -0.000853, -0.009652, 0.001615, 6.731608, -74.769182, 109.822290, , , 0.000000, , , 
09618, , 6.192265, -1.640073, 1.129239, 1.425302, 1.227116, -3.586077, 0.504660, -2.013559, 0.452717, -0.895508, -0.355957, 0.020508, 0.061842, -0.016290, 0.011874, 0.999944, 0.002523, -0.010068, 0.002264, 6.553181, -75.941835, 110.304682, , , 0.000000, , , 
09619, , 6.470795, 0.372128, 1.306047, -0.282543, 0.101978, -3.207900, 0.183210, -2.260258, 0.547256, -0.897949, -0.345459, 0.037354, 0.064544, 0.003886, 0.013794, 0.999932, 0.000916, -0.011301, 0.002736, 5.910027, -77.275358, 111.070230, , , 0.000000, , , 
09620, , 7.652382, 0.947639, 1.242749, -0.880097, -0.030249, -2.052358, -0.504431, -2.477778, 0.624036, -0.897949, -0.343506, 0.060547, 0.076332, 0.009748, 0.013350, 0.999915, -0.002522, -0.012389, 0.003120, 4.565865, -78.718560, 112.147989, , , 0.000000, , , 
09621, , 8.382739, 1.047453, 1.910114, -0.692561, -0.735291, -1.210853, -0.830717, -2.560646, 0.607033, -0.900391, -0.339355, 0.075195, 0.083542, 0.010811, 0.020128, 0.999905, -0.004153, -0.012803, 0.003035, 2.686669, -80.216555, 113.573480, , , 0.000000, , , 
09622, , 8.914270, 1.387946, 1.868544, -1.016207, -0.989254, -0.709594, -1.110308, -2.578766, 0.505265, -0.898682, -0.327148, 0.096191, 0.088857, 0.014212, 0.019754, 0.999898, -0.005551, -0.012893, 0.002526, 0.505458, -81.698626, 115.136940, , , 0.000000, , , 
09623, , 9.210393, 1.436857, 0.657968, -1.556464, -0.112237, -0.599121, -1.071785, -2.420304, 0.467367, -0.896729, -0.324951, 0.108887, 0.091982, 0.014623, 0.007615, 0.999910, -0.005359, -0.012101, 0.002337, -2.319855, -83.091415, 117.367389, , , 0.000000, , , 
09624, , 9.070369, 1.211879, 0.142385, -1.515487, 0.228473, -0.790041, -1.011711, -2.341316, 0.421447, -0.901123, -0.318848, 0.123535, 0.090653, 0.012320, 0.002423, 0.999916, -0.005058, -0.011706, 0.002107, -5.958898, -84.409629, 120.443949, , , 0.000000, , , 
09625, , 9.256828, 0.600797, -0.074284, -1.007830, 0.494294, -0.604442, -1.078338, -2.258260, 0.366478, -0.899170, -0.316895, 0.140381, 0.092558, 0.006177, 0.000269, 0.999920, -0.005392, -0.011291, 0.001832, -11.261879, -85.668153, 125.145639, , , 0.000000, , , 
09626, , 9.023489, -0.056724, 0.118055, -0.267837, 0.376789, -0.800278, -1.186171, -2.164091, 0.327696, -0.897217, -0.312744, 0.155029, 0.090216, -0.000409, 0.002160, 0.999923, -0.005931, -0.010820, 0.001638, -19.687693, -86.813465, 132.907196, , , 0.000000, , , 
09627, , 8.713100, -0.269689, 0.791779, 0.249533, -0.362815, -1.070793, -1.518601, -2.133767, 0.289017, -0.897217, -0.312744, 0.169678, 0.087043, -0.002506, 0.008866, 0.999913, -0.007593, -0.010669, 0.001445, -36.144627, -87.833739, 148.509480, , , 0.000000, , , 
09628, , 8.677568, -1.068266, 0.797770, 1.033515, -0.261597, -1.098470, -1.929519, -2.136024, 0.226420, -0.897217, -0.312744, 0.175781, 0.086695, -0.010501, 0.009006, 0.999896, -0.009647, -0.010680, 0.001132, -70.591707, -88.487648, -178.134170, , , 0.000000, , , 
09629, , 8.656218, -1.826684, 0.429281, 1.656649, 0.151463, -1.113260, -1.881389, -2.028059, 0.148557, -0.891113, -0.317139, 0.192627, 0.086525, -0.018156, 0.005341, 0.999904, -0.009407, -0.010140, 0.000743, -114.725558, -88.334723, -135.064016, , , 0.000000, , , 
09630, , 8.589017, -1.973217, 0.480026, 1.867601, -0.040825, -1.187008, -1.670571, -1.919959, 0.068901, -0.886963, -0.319092, 0.198730, 0.085845, -0.019657, 0.005789, 0.999919, -0.008353, -0.009600, 0.000344, -139.953432, -87.624076, -110.780020, , , 0.000000, , , 
09631, , 8.721338, -1.468087, 0.463802, 1.435711, -0.387370, -1.082415, -1.768534, -1.924241, 0.051191, -0.886963, -0.319092, 0.215576, 0.087166, -0.014612, 0.005606, 0.999915, -0.008842, -0.009621, 0.000256, -152.803935, -86.675327, -98.929653, , , 0.000000, , , 
09632, , 8.955370, -1.177145, -0.062441, 1.045136, -0.179170, -0.842702, -1.870530, -1.930774, 0.068003, -0.884521, -0.327637, 0.221680, 0.089557, -0.011741, 0.000350, 0.999910, -0.009352, -0.009654, 0.000340, -159.969717, -85.648401, -92.823099, , , 0.000000, , , 
09633, , 9.257610, -0.480433, -0.478624, 0.308650, -0.196250, -0.537639, -1.802974, -1.934170, 0.110030, -0.876465, -0.325439, 0.228027, 0.092619, -0.004791, -0.003847, 0.999912, -0.009015, -0.009671, 0.000550, -164.263440, -84.564656, -89.550613, , , 0.000000, , , 
09634, , 9.318091, 0.200766, -0.534602, -0.315046, -0.513058, -0.496688, -1.766685, -1.925410, 0.194463, -0.876221, -0.329590, 0.240479, 0.093225, 0.002056, -0.004467, 0.999914, -0.008833, -0.009627, 0.000972, -166.886223, -83.471913, -87.932251, , , 0.000000, , , 
09635, , 9.048689, -0.158626, -1.479913, -0.174688, 0.344404, -0.650685, -1.677990, -1.912880, 0.268494, -0.870117, -0.331787, 0.250732, 0.090625, -0.001584, -0.013919, 0.999918, -0.008390, -0.009564, 0.001342, -168.502864, -82.360732, -87.273170, , , 0.000000, , , 
09636, , 9.146413, -0.496750, -2.483020, -0.043861, 1.204433, -0.399207, -1.405191, -1.864833, 0.285021, -0.870117, -0.329834, 0.261230, 0.091697, -0.005007, -0.023941, 0.999931, -0.007026, -0.009324, 0.001425, -169.617706, -81.284083, -86.961206, , , 0.000000, , , 
09637, , 9.583260, -0.220642, -2.703642, -0.308485, 1.114214, 0.079633, -1.381684, -1.734446, 0.242185, -0.869873, -0.338135, 0.267578, 0.096065, -0.002273, -0.026188, 0.999938, -0.006908, -0.008672, 0.001211, -170.608330, -80.273087, -86.761339, , , 0.000000, , , 
09638, , 9.333317, -0.563431, -2.098658, 0.205480, 0.489453, -0.244579, -1.450577, -1.578255, 0.172718, -0.863770, -0.336182, 0.277832, 0.093500, -0.005702, -0.020208, 0.999942, -0.007253, -0.007891, 0.000864, -171.682468, -79.367678, -86.515378, , , 0.000000, , , 
09639, , 9.277885, -0.837946, -1.499882, 0.636528, -0.171273, -0.400218, -1.168154, -1.489164, 0.125221, -0.863525, -0.344482, 0.286133, 0.092892, -0.008406, -0.014258, 0.999955, -0.005841, -0.007446, 0.000626, -172.579874, -78.504819, -86.286510, , , 0.000000, , , 
09640, , 9.555272, -0.076824, -1.171187, -0.013434, -0.826156, -0.221204, -0.991597, -1.401638, 0.128309, -0.857422, -0.342285, 0.294678, 0.095632, -0.000763, -0.011038, 0.999963, -0.004958, -0.007008, 0.000642, -173.281995, -77.702047, -86.150538, , , 0.000000, , , 
09641, , 9.636749, 0.908656, -1.414573, -1.001580, -0.917541, -0.125209, -1.216048, -1.413488, 0.168686, -0.857422, -0.348633, 0.298584, 0.096457, 0.009084, -0.013519, 0.999956, -0.006080, -0.007067, 0.000843, -173.948749, -76.878976, -86.184037, , , 0.000000, , , 
09642, , 9.531836, 1.515803, -1.430561, -1.580104, -1.103667, -0.247964, -1.518441, -1.543081, 0.188127, -0.853027, -0.350586, 0.302734, 0.095411, 0.015142, -0.013685, 0.999941, -0.007592, -0.007715, 0.000941, -174.745314, -75.991736, -86.260544, , , 0.000000, , , 
09643, , 9.873055, 1.902141, -0.939470, -1.857938, -1.844917, -0.059701, -1.826297, -1.730158, 0.164663, -0.849121, -0.350830, 0.313232, 0.098792, 0.019021, -0.008714, 0.999921, -0.009131, -0.008651, 0.000823, -175.748611, -74.990727, -86.308586, , , 0.000000, , , 
09644, , 10.454821, 1.696794, -0.082283, -1.515561, -2.925828, 0.253587, -2.051924, -1.766153, 0.162018, -0.842529, -0.359131, 0.323730, 0.104537, 0.017049, -0.000074, 0.999908, -0.010259, -0.008830, 0.000810, -176.835693, -73.978042, -86.401512, , , 0.000000, , , 
09645, , 11.123565, 0.402951, 1.272434, -0.068978, -4.417156, 0.482742, -2.235223, -1.818532, 0.078271, -0.838135, -0.367432, 0.329834, 0.111112, 0.004222, 0.013689, 0.999896, -0.011176, -0.009092, 0.000391, -178.126784, -72.931190, -86.390777, , , 0.000000, , , 
09646, , 10.290177, -0.686403, 1.222519, 0.982002, -4.191046, -0.361665, -1.962791, -1.499047, -0.000531, -0.829834, -0.373779, 0.331787, 0.102806, -0.006739, 0.013063, 0.999924, -0.009814, -0.007495, -0.000003, -179.321771, -72.075542, -86.317973, , , 0.000000, , , 
09647, , 10.986657, -1.426371, 2.108244, 1.784866, -5.354039, -0.048921, -2.060227, -1.482757, -0.124395, -0.827637, -0.379883, 0.337891, 0.109697, -0.014108, 0.022042, 0.999919, -0.010301, -0.007414, -0.000622, 179.274135, -71.226009, -86.078560, , , 0.000000, , , 
09648, , 12.121874, -3.728341, 1.383014, 4.068332, -5.099082, 1.150712, -2.413088, -1.260893, -0.309894, -0.818848, -0.396484, 0.333496, 0.121069, -0.037294, 0.015044, 0.999906, -0.012065, -0.006304, -0.001549, 177.431410, -70.501657, -85.592540, , , 0.000000, , , 
09649, , 12.851078, -5.832178, 0.638064, 6.196607, -4.783878, 1.946694, -2.020292, -0.981057, -0.391273, -0.822754, -0.402588, 0.333496, 0.128361, -0.058500, 0.007601, 0.999935, -0.010101, -0.004905, -0.001956, 175.740389, -69.932372, -85.016935, , , 0.000000, , , 
09650, , 12.915536, -5.429045, -0.342343, 5.835914, -4.073778, 2.259873, -1.259231, -0.740281, -0.385554, -0.816406, -0.404785, 0.337646, 0.129061, -0.054557, -0.002603, 0.999971, -0.006296, -0.003701, -0.001928, 174.512500, -69.493719, -84.478048, , , 0.000000, , , 
09651, , 12.949661, -4.081518, -0.478560, 4.541029, -4.092573, 2.320325, -1.048568, -0.611006, -0.335872, -0.812012, -0.417236, 0.339600, 0.129441, -0.041056, -0.004175, 0.999980, -0.005243, -0.003055, -0.001679, 173.512921, -69.135174, -84.037959, , , 0.000000, , , 
09652, , 12.703367, -3.281563, -0.258820, 3.771224, -4.306003, 1.996061, -1.007116, -0.472373, -0.283565, -0.812012, -0.415039, 0.337402, 0.126992, -0.033007, -0.002122, 0.999984, -0.005036, -0.002362, -0.001418, 172.592760, -68.849498, -83.671405, , , 0.000000, , , 
09653, , 12.718466, -2.531501, 0.674273, 3.029391, -5.240907, 1.675472, -0.789724, -0.326467, -0.264766, -0.809570, -0.425537, 0.339355, 0.127140, -0.025456, 0.007051, 0.999990, -0.003949, -0.001632, -0.001324, 171.835768, -68.656141, -83.325435, , , 0.000000, , , 
09654, , 13.624921, -2.335047, 1.626047, 2.866603, -6.494786, 2.159577, -0.734143, -0.139836, -0.301825, -0.805420, -0.427490, 0.333008, 0.136202, -0.023496, 0.016442, 0.999992, -0.003671, -0.000699, -0.001509, 171.000780, -68.553676, -82.881410, , , 0.000000, , , 
09655, , 15.885062, -3.053181, 2.338970, 3.689696, -8.000890, 3.953200, -0.770158, 0.193805, -0.350057, -0.807129, -0.435791, 0.328857, 0.158820, -0.030720, 0.023354, 0.999991, -0.003851, 0.000969, -0.001750, 170.026714, -68.647649, -82.283766, , , 0.000000, , , 
09656, , 17.682294, -3.838367, 2.906281, 4.582442, -9.145408, 5.392723, -0.590788, 0.754940, -0.399078, -0.807129, -0.439941, 0.318359, 0.176854, -0.038652, 0.028509, 0.999987, -0.002954, 0.003775, -0.001995, 168.894281, -69.033558, -81.433427, , , 0.000000, , , 
09657, , 17.474461, -3.748603, 2.980323, 4.548718, -8.970739, 5.257837, -0.232215, 1.455431, -0.405566, -0.811279, -0.439941, 0.307861, 0.174879, -0.037807, 0.028575, 0.999971, -0.001161, 0.007277, -0.002028, 167.726148, -69.828290, -80.294162, , , 0.000000, , , 
09658, , 16.785244, -2.906132, 2.069742, 3.808688, -7.575689, 5.105914, 0.136569, 2.181601, -0.446113, -0.815186, -0.446045, 0.291016, 0.167999, -0.029449, 0.018845, 0.999938, 0.000683, 0.010908, -0.002231, 166.305620, -70.991331, -78.704353, , , 0.000000, , , 
09659, , 16.784672, -1.526178, 1.317175, 2.584485, -6.397618, 5.619612, 0.386091, 3.136137, -0.532032, -0.821045, -0.447998, 0.270020, 0.167984, -0.015731, 0.010508, 0.999872, 0.001930, 0.015680, -0.002660, 164.260961, -72.684256, -76.276016, , , 0.000000, , , 
09660, , 15.512452, 0.433801, 1.182714, 0.671798, -5.309952, 4.800378, 0.635308, 4.111952, -0.562047, -0.829346, -0.449951, 0.238770, 0.155335, 0.003871, 0.008648, 0.999780, 0.003176, 0.020558, -0.002810, 161.151158, -74.841167, -72.659497, , , 0.000000, , , 
09661, , 13.614585, 2.190032, 0.499677, -1.085837, -3.562780, 3.472689, 1.250388, 4.491846, -0.595842, -0.837402, -0.453857, 0.203125, 0.136279, 0.021475, 0.002072, 0.999724, 0.006251, 0.022457, -0.002979, 156.903190, -77.160642, -67.492234, , , 0.000000, , , 
09662, , 13.463914, 3.360437, -1.743909, -2.154443, -0.775751, 3.983743, 1.976484, 4.597273, -0.469001, -0.847656, -0.451660, 0.182129, 0.134275, 0.033480, -0.020197, 0.999684, 0.009881, 0.022984, -0.002345, 151.295671, -79.418336, -60.611357, , , 0.000000, , , 
09663, , 13.979486, 3.801057, -3.978474, -2.591702, 1.920655, 4.859248, 1.899186, 4.646708, -0.110576, -0.851807, -0.449463, 0.148682, 0.138847, 0.038330, -0.042655, 0.999685, 0.009495, 0.023231, -0.000553, 143.377171, -81.668515, -51.430143, , , 0.000000, , , 
09664, , 15.308839, 4.026781, -4.976125, -2.835441, 3.372824, 6.183665, 0.958545, 4.379594, 0.296218, -0.857910, -0.449463, 0.111084, 0.151893, 0.040742, -0.052902, 0.999748, 0.004792, 0.021896, 0.001481, 131.694701, -83.646151, -39.100696, , , 0.000000, , , 
09665, , 17.290972, 2.785407, -5.555370, -1.618969, 4.546889, 7.914630, 0.568252, 4.053096, 0.561379, -0.866211, -0.440918, 0.079834, 0.171658, 0.028501, -0.058961, 0.999787, 0.002841, 0.020264, 0.002807, 113.412334, -85.212627, -20.360583, , , 0.000000, , , 
09666, , 18.478088, 1.516723, -5.278872, -0.449903, 4.990538, 8.800565, 1.002398, 3.810623, 0.628902, -0.872559, -0.438965, 0.059082, 0.183682, 0.016022, -0.056217, 0.999801, 0.005012, 0.019052, 0.003144, 86.613677, -85.966628, 7.089303, , , 0.000000, , , 
09667, , 19.297441, 0.985221, -4.185033, -0.020366, 4.635703, 9.405530, 0.947677, 3.731587, 0.607225, -0.878418, -0.442871, 0.027588, 0.192118, 0.010646, -0.045391, 0.999810, 0.004738, 0.018657, 0.003036, 57.315586, -85.622985, 37.050530, , , 0.000000, , , 
09668, , 19.587023, 0.898302, -3.122850, -0.041714, 4.305165, 9.568380, 0.324064, 3.804267, 0.627334, -0.878662, -0.432373, -0.007812, 0.195200, 0.009651, -0.034931, 0.999813, 0.001620, 0.019020, 0.003136, 36.400510, -84.369511, 58.228155, , , 0.000000, , , 
09669, , 18.786804, 0.483379, -2.568007, 0.178202, 4.443676, 8.624957, -0.166575, 3.928327, 0.654592, -0.878662, -0.428223, -0.047363, 0.187298, 0.005424, -0.029367, 0.999801, -0.000833, 0.019640, 0.003273, 23.466902, -82.577626, 71.186679, , , 0.000000, , , 
09670, , 17.182649, -0.436897, -2.692995, 0.835272, 5.125183, 6.790938, -0.197037, 3.978370, 0.731058, -0.880859, -0.421875, -0.082764, 0.171260, -0.003771, -0.030337, 0.999795, -0.000985, 0.019890, 0.003655, 15.555136, -80.560460, 79.068452, , , 0.000000, , , 
09671, , 16.062172, -0.948304, -2.838937, 1.104341, 5.757332, 5.436874, 0.072149, 3.979319, 0.853967, -0.880859, -0.415527, -0.120361, 0.160053, -0.008788, -0.031581, 0.999793, 0.000361, 0.019895, 0.004270, 10.213955, -78.426749, 84.571220, , , 0.000000, , , 
09672, , 14.269074, -0.917358, -2.764943, 0.851691, 5.893072, 3.476697, 0.402184, 4.102344, 0.917533, -0.878906, -0.409180, -0.147461, 0.142123, -0.008461, -0.030586, 0.999777, 0.002011, 0.020510, 0.004587, 6.617293, -76.173767, 88.492695, , , 0.000000, , , 
09673, , 12.051398, -0.867374, -2.222272, 0.649276, 5.334544, 1.233784, 0.653621, 4.183049, 0.916544, -0.872803, -0.400879, -0.182861, 0.120052, -0.008045, -0.024764, 0.999765, 0.003268, 0.020914, 0.004582, 4.160810, -73.822605, 91.446913, , , 0.000000, , , 
09674, , 10.229227, -0.640352, -1.903771, 0.303471, 4.914152, -0.624972, 1.011410, 4.065055, 0.933387, -0.862305, -0.398926, -0.209961, 0.101905, -0.005824, -0.021142, 0.999770, 0.005057, 0.020324, 0.004667, 2.595456, -71.525363, 93.692513, , , 0.000000, , , 
09675, , 8.412879, 0.187512, -1.664716, -0.607133, 4.344753, -2.441968, 1.714713, 3.882330, 0.897425, -0.864502, -0.392578, -0.243164, 0.083775, 0.002404, -0.018257, 0.999765, 0.008573, 0.019410, 0.004487, 1.862754, -69.312790, 95.531974, , , 0.000000, , , 
09676, , 7.310133, 1.092383, -1.783948, -1.611975, 4.180579, -3.670061, 2.043097, 3.673745, 0.786642, -0.858154, -0.394531, -0.264160, 0.072714, 0.011401, -0.019063, 0.999771, 0.010215, 0.018367, 0.003933, 1.742470, -67.219781, 96.920737, , , 0.000000, , , 
09677, , 6.410322, 1.250798, -2.646252, -1.975200, 4.751829, -4.998858, 2.202175, 3.557194, 0.702562, -0.849854, -0.394531, -0.282959, 0.063576, 0.013031, -0.027455, 0.999775, 0.011010, 0.017785, 0.003513, 1.921592, -65.188229, 98.114003, , , 0.000000, , , 
09678, , 5.251928, 1.326698, -2.604326, -2.091050, 4.318007, -6.192670, 2.254319, 3.350314, 0.578103, -0.841309, -0.398682, -0.301758, 0.052036, 0.013717, -0.026765, 0.999792, 0.011271, 0.016750, 0.002890, 2.382432, -63.279180, 99.035675, , , 0.000000, , , 
09679, , 4.280208, 1.475836, -1.689323, -2.092171, 3.116212, -6.769210, 2.069344, 3.017619, 0.517300, -0.841064, -0.402832, -0.316406, 0.042504, 0.015047, -0.017381, 0.999829, 0.010346, 0.015087, 0.002586, 2.835426, -61.562250, 99.868903, , , 0.000000, , , 
09680, , 3.889426, 1.122866, -0.815567, -1.599559, 2.308692, -6.785437, 1.777817, 2.653010, 0.455326, -0.826416, -0.406982, -0.331055, 0.038757, 0.011392, -0.008570, 0.999870, 0.008889, 0.013264, 0.002277, 3.246870, -60.054892, 100.563546, , , 0.000000, , , 
09681, , 3.441054, 0.681672, -0.795467, -1.167432, 2.220420, -7.234971, 1.640724, 2.397735, 0.320813, -0.822266, -0.409180, -0.339600, 0.034301, 0.006939, -0.008310, 0.999893, 0.008203, 0.011988, 0.001604, 3.725126, -58.693977, 101.105043, , , 0.000000, , , 
09682, , 2.819557, 0.878626, -1.202895, -1.422825, 2.221321, -8.021081, 1.631608, 2.161283, 0.142306, -0.817871, -0.415283, -0.350098, 0.028058, 0.008906, -0.012260, 0.999908, 0.008158, 0.010806, 0.000712, 4.391692, -57.461229, 101.420260, , , 0.000000, , , 
09683, , 2.087041, 1.099601, -1.862216, -1.747719, 2.315396, -9.027252, 1.554348, 1.929935, -0.013883, -0.805176, -0.421631, -0.364746, 0.020691, 0.011140, -0.018736, 0.999923, 0.007772, 0.009649, -0.000069, 5.143894, -56.360043, 101.588503, , , 0.000000, , , 
09684, , 1.214510, 1.290895, -1.893271, -1.867882, 1.799016, -9.794066, 1.434673, 1.637732, -0.100286, -0.802734, -0.431885, -0.369141, 0.011997, 0.013039, -0.018938, 0.999941, 0.007173, 0.008188, -0.000501, 5.919319, -55.417170, 101.643883, , , 0.000000, , , 
09685, , 1.198971, 1.606670, -1.829836, -2.171166, 1.628337, -9.771594, 1.283899, 1.285588, -0.078321, -0.800781, -0.425781, -0.368896, 0.011879, 0.016179, -0.018271, 0.999959, 0.006419, 0.006428, -0.000392, 6.596776, -54.680539, 101.712905, , , 0.000000, , , 
09686, , 1.214667, 2.013623, -1.723940, -2.546694, 1.413784, -9.680139, 1.133498, 0.991960, -0.123793, -0.794189, -0.440186, -0.373291, 0.012074, 0.020226, -0.017185, 0.999971, 0.005667, 0.004960, -0.000619, 7.251092, -54.104374, 101.706008, , , 0.000000, , , 
09687, , 1.555995, 1.832028, -1.727389, -2.427574, 1.648115, -9.422962, 0.951802, 0.686695, -0.073087, -0.790039, -0.440186, -0.375488, 0.015507, 0.018397, -0.017240, 0.999983, 0.004759, 0.003433, -0.000365, 7.773838, -53.713110, 101.730994, , , 0.000000, , , 
09688, , 1.861185, 1.814594, -1.679804, -2.445094, 1.778268, -9.151064, 1.029833, 0.442352, -0.054560, -0.787842, -0.448486, -0.371338, 0.018580, 0.018227, -0.016745, 0.999984, 0.005149, 0.002212, -0.000273, 8.359661, -53.454340, 101.735320, , , 0.000000, , , 
09689, , 2.209496, 2.097709, -1.444774, -2.692823, 1.697991, -8.701330, 1.068727, 0.163984, -0.060435, -0.789795, -0.454590, -0.369385, 0.022090, 0.021047, -0.014354, 0.999985, 0.005344, 0.000820, -0.000302, 8.994146, -53.360365, 101.705223, , , 0.000000, , , 
09690, , 2.367339, 2.426733, -0.980973, -2.879472, 1.320216, -8.256650, 0.838008, -0.128214, -0.059987, -0.791992, -0.450684, -0.363037, 0.023687, 0.024301, -0.009693, 0.999991, 0.004190, -0.000641, -0.000300, 9.537780, -53.423856, 101.625197, , , 0.000000, , , 
09691, , 2.310616, 2.635674, -0.073386, -2.772634, 0.528457, -7.733191, 0.422910, -0.411203, -0.061779, -0.795898, -0.456787, -0.358887, 0.023116, 0.026351, -0.000631, 0.999996, 0.002115, -0.002056, -0.000309, 9.877542, -53.656103, 101.502253, , , 0.000000, , , 
09692, , 2.353511, 2.732705, 1.152494, -2.462393, -0.403455, -6.965098, -0.126122, -0.692825, -0.062237, -0.798096, -0.450439, -0.356689, 0.023504, 0.027327, 0.011589, 0.999994, -0.000631, -0.003464, -0.000311, 9.948780, -54.037508, 101.323599, , , 0.000000, , , 
09693, , 2.814593, 2.397878, 2.254664, -1.844916, -0.870067, -5.992417, -0.762626, -0.932140, -0.030522, -0.802246, -0.450439, -0.356689, 0.028044, 0.024061, 0.022586, 0.999982, -0.003813, -0.004661, -0.000153, 9.659357, -54.567205, 101.141051, , , 0.000000, , , 
09694, , 3.623995, 1.365668, 3.086172, -0.717815, -0.739955, -4.969161, -1.268681, -1.128693, 0.078138, -0.806396, -0.448486, -0.350586, 0.036060, 0.013867, 0.030978, 0.999964, -0.006343, -0.005643, 0.000391, 9.020916, -55.209130, 101.031973, , , 0.000000, , , 
09695, , 4.463281, -0.064273, 4.892552, 1.058425, -1.287482, -3.403101, -1.690948, -1.442472, 0.093987, -0.812988, -0.437988, -0.350342, 0.044279, -0.000206, 0.049249, 0.999938, -0.008455, -0.007212, 0.000470, 8.154077, -56.039133, 100.909948, , , 0.000000, , , 
09696, , 5.957688, -1.875767, 6.634264, 3.079029, -1.429729, -1.357028, -1.526380, -1.656381, 0.119651, -0.817383, -0.431885, -0.343994, 0.059035, -0.018213, 0.066973, 0.999936, -0.007632, -0.008282, 0.000598, 7.372941, -56.985329, 100.796993, , , 0.000000, , , 
09697, , 8.103733, -3.254200, 9.071935, 4.827463, -2.018768, 1.640534, -0.603220, -1.674347, 0.247313, -0.827881, -0.427734, -0.322998, 0.080313, -0.032167, 0.091491, 0.999960, -0.003016, -0.008372, 0.001237, 6.992027, -57.958116, 100.840064, , , 0.000000, , , 
09698, , 9.734223, -2.753080, 11.234461, 4.807837, -3.267021, 4.142762, 0.231460, -1.612889, 0.304865, -0.838135, -0.431885, -0.314697, 0.096474, -0.027514, 0.113093, 0.999966, 0.001157, -0.008064, 0.001524, 7.028693, -58.893286, 100.951770, , , 0.000000, , , 
09699, , 12.060174, -1.703399, 12.809486, 4.108440, -3.899312, 6.930717, 0.658996, -1.667706, 0.308937, -0.844727, -0.427734, -0.293945, 0.119555, -0.017273, 0.129038, 0.999959, 0.003295, -0.008338, 0.001545, 7.305496, -59.865664, 101.074562, , , 0.000000, , , 
09700, , 14.845062, -1.986792, 14.034655, 4.604567, -3.696958, 9.844797, 0.763286, -1.582620, 0.189886, -0.846680, -0.429688, -0.283447, 0.147353, -0.020266, 0.141439, 0.999961, 0.003816, -0.007913, 0.000949, 7.765058, -60.775503, 101.048083, , , 0.000000, , , 
09701, , 15.808552, -1.979370, 13.710546, 4.590326, -3.188137, 10.449732, 1.016134, -1.200074, -0.018694, -0.848633, -0.436035, -0.266846, 0.157258, -0.020508, 0.137948, 0.999969, 0.005081, -0.006000, -0.000093, 8.533188, -61.452731, 100.841160, , , 0.000000, , , 
09702, , 14.835066, 0.249829, 11.858555, 2.188271, -2.954042, 8.821909, 1.046287, -0.829052, -0.139854, -0.850830, -0.436035, -0.256348, 0.147859, 0.001772, 0.119210, 0.999977, 0.005231, -0.004145, -0.000699, 9.419935, -61.906005, 100.513947, , , 0.000000, , , 
09703, , 12.836045, 1.545278, 9.327106, 0.456296, -2.295517, 5.956531, 0.356600, -0.595767, -0.095503, -0.852783, -0.438232, -0.252197, 0.128089, 0.015225, 0.093680, 0.999994, 0.001783, -0.002979, -0.000478, 9.821093, -62.228477, 100.297003, , , 0.000000, , , 
09704, , 10.879875, 1.437704, 7.442404, 0.152074, -1.665525, 3.341424, -0.039181, -0.447344, 0.066878, -0.854736, -0.438232, -0.248047, 0.108627, 0.014428, 0.074664, 0.999997, -0.000196, -0.002237, 0.000334, 9.812860, -62.484120, 100.280070, , , 0.000000, , , 
09705, , 9.947627, -0.093347, 6.663754, 1.430801, -0.995773, 2.033438, 0.479772, -0.384539, 0.312069, -0.856689, -0.442383, -0.239746, 0.099349, -0.000939, 0.066826, 0.999994, 0.002399, -0.001923, 0.001560, 9.807114, -62.725481, 100.602693, , , 0.000000, , , 
09706, , 10.485655, 0.409349, 6.209343, 0.810355, -0.578863, 2.339683, 1.900544, -0.399311, 0.518429, -0.861084, -0.440186, -0.223145, 0.104722, 0.003773, 0.062339, 0.999949, 0.009503, -0.001997, 0.002592, 10.406757, -62.999388, 101.151629, , , 0.000000, , , 
09707, , 14.757800, 4.122126, 5.154849, -3.302334, 0.821103, 5.991579, 2.997684, -0.260525, 0.649299, -0.863037, -0.442383, -0.212646, 0.147377, 0.040919, 0.052355, 0.999882, 0.014988, -0.001303, 0.003246, 11.447319, -63.209907, 101.920089, , , 0.000000, , , 
09708, , 22.581380, 5.877088, 4.371968, -5.896543, 4.057901, 12.822054, 2.166333, -0.399080, 0.973403, -0.871582, -0.436035, -0.206299, 0.225437, 0.059387, 0.044811, 0.999928, 0.010831, -0.001995, 0.004867, 11.692867, -63.542281, 103.032982, , , 0.000000, , , 
09709, , 28.419665, -0.920162, 0.296003, -1.990230, 12.359208, 15.719526, 0.070844, -0.478183, 0.878343, -0.878174, -0.425781, -0.201904, 0.284225, -0.007955, 0.003637, 0.999987, 0.000354, -0.002391, 0.004392, 10.833459, -63.904167, 104.043273, , , 0.000000, , , 
09710, , 24.725105, -10.419396, -4.313066, 5.038832, 18.261392, 9.671263, 1.108234, 0.063142, 0.556514, -0.871826, -0.427734, -0.187256, 0.247525, -0.103264, -0.043783, 0.999981, 0.005541, 0.000316, 0.002783, 10.817828, -63.925042, 104.766793, , , 0.000000, , , 
09711, , 13.655858, -3.118080, -0.594885, 0.984545, 7.660386, 1.887852, 4.212372, 0.861881, 0.110856, -0.873779, -0.438232, -0.179199, 0.136547, -0.030962, -0.007191, 0.999769, 0.021060, 0.004309, 0.000554, 12.882484, -63.459949, 105.149083, , , 0.000000, , , 
09712, , 3.125535, 2.157929, -3.733121, -3.991317, 3.239866, -8.422740, 4.527497, 1.197505, -0.323325, -0.873535, -0.444336, -0.166748, 0.031069, 0.022369, -0.037017, 0.999725, 0.022635, 0.005987, -0.001616, 15.501432, -62.745843, 105.120332, , , 0.000000, , , 
09713, , -10.623705, 9.788656, -14.104168, -14.059899, 1.178891, -24.253374, 0.996720, 0.450908, -0.354768, -0.869141, -0.450684, -0.166748, -0.106379, 0.098776, -0.140311, 0.999983, 0.004984, 0.002255, -0.001774, 16.296114, -62.450565, 104.858400, , , 0.000000, , , 
09714, , -12.230882, 11.540929, -4.041496, -10.533220, -7.905457, -21.022827, 0.043094, -2.604299, 0.816836, -0.882080, -0.438232, -0.137451, -0.122239, 0.114919, -0.041982, 0.999907, 0.000215, -0.013021, 0.004084, 16.261546, -64.010475, 104.923870, , , 0.000000, , , 
09715, , 0.037210, 2.928479, 0.570754, -2.262942, -1.852014, -9.219656, -1.780257, -3.679570, 1.529797, -0.895264, -0.419678, -0.124512, 0.000046, 0.029335, 0.005449, 0.999762, -0.008901, -0.018396, 0.007648, 14.628395, -66.284069, 105.598392, , , 0.000000, , , 
09716, , 10.151981, -4.264175, -0.461774, 2.450841, 6.144135, -0.999045, -4.066816, -3.156678, 1.315190, -0.903809, -0.407227, -0.114014, 0.101845, -0.042033, -0.002153, 0.999647, -0.020332, -0.015782, 0.006575, 11.526842, -68.212715, 106.433679, , , 0.000000, , , 
09717, , 17.784226, -12.465442, -5.915257, 6.710465, 16.499408, 3.946510, -3.081609, -3.025026, 1.196129, -0.912598, -0.394775, -0.088623, 0.179435, -0.124448, -0.054528, 0.999749, -0.015407, -0.015124, 0.005980, 8.788979, -70.048193, 107.469512, , , 0.000000, , , 
09718, , 21.647344, -11.174419, -6.184971, 5.220164, 16.874185, 8.067803, 1.298849, -2.994079, 0.495844, -0.914795, -0.392822, -0.057373, 0.217650, -0.110815, -0.059319, 0.999864, 0.006494, -0.014970, 0.002479, 9.515957, -71.783636, 107.486911, , , 0.000000, , , 
09719, , 16.820431, -2.900905, -2.671648, -0.138069, 8.425608, 5.269160, 1.832749, -2.022374, 0.228393, -0.915283, -0.384521, -0.032227, 0.168498, -0.028581, -0.025277, 0.999906, 0.009163, -0.010112, 0.001142, 10.777042, -72.966330, 107.249380, , , 0.000000, , , 
09720, , 9.820960, 0.590638, 1.561562, -0.619325, 1.079817, 0.070946, 0.570676, -1.816197, 0.094712, -0.913086, -0.388672, -0.015381, 0.098060, 0.005907, 0.016523, 0.999955, 0.002853, -0.009081, 0.000474, 11.610898, -73.994267, 106.719829, , , 0.000000, , , 
09721, , 6.641913, -0.072079, 2.159670, 0.560217, -0.102640, -2.851477, -0.055836, -1.934922, 0.284884, -0.917480, -0.380615, -0.000732, 0.066207, -0.000620, 0.022238, 0.999952, -0.000279, -0.009674, 0.001424, 11.780879, -75.134465, 106.491242, , , 0.000000, , , 
09722, , 5.067416, 0.272093, 0.699418, -0.266588, 0.474536, -4.719094, 0.361836, -2.074671, 0.382524, -0.917725, -0.376465, 0.024414, 0.050593, 0.002804, 0.007524, 0.999943, 0.001809, -0.010373, 0.001913, 12.118939, -76.339375, 106.355464, , , 0.000000, , , 
09723, , 5.063706, 2.139256, 0.964334, -1.748287, -0.751790, -4.566344, 0.388726, -2.475902, 0.608867, -0.924072, -0.374512, 0.049561, 0.050447, 0.021527, 0.010310, 0.999917, 0.001944, -0.012379, 0.003044, 12.113217, -77.820795, 106.571699, , , 0.000000, , , 
09724, , 6.247643, 4.356733, 1.544645, -3.458538, -2.217137, -3.215703, -0.810659, -3.014463, 0.699710, -0.924561, -0.359863, 0.070557, 0.062083, 0.043850, 0.016207, 0.999872, -0.004053, -0.015072, 0.003498, 11.457870, -79.590050, 106.765377, , , 0.000000, , , 
09725, , 8.149778, 2.077622, -0.032015, -2.243402, 0.351220, -1.714785, -1.772035, -3.129712, 0.612591, -0.920654, -0.353760, 0.093750, 0.081427, 0.021029, 0.000769, 0.999834, -0.008860, -0.015648, 0.003063, 10.370369, -81.437587, 106.824173, , , 0.000000, , , 
09726, , 8.545014, -0.141354, -1.253401, -0.761830, 2.266126, -1.512889, -1.465495, -3.046859, 0.446457, -0.920898, -0.347656, 0.114746, 0.085631, -0.001308, -0.011221, 0.999855, -0.007327, -0.015234, 0.002232, 9.960934, -83.197749, 106.389113, , , 0.000000, , , 
09727, , 9.262565, 0.174142, -0.879415, -0.807452, 1.626515, -0.686083, -0.653896, -2.967523, 0.380660, -0.918945, -0.345703, 0.137695, 0.092739, 0.001892, -0.007425, 0.999883, -0.003269, -0.014837, 0.001903, 10.343863, -84.930942, 105.613868, , , 0.000000, , , 
09728, , 9.057562, 1.197769, 0.026598, -1.244171, 0.114209, -0.762309, -1.091410, -2.674512, 0.314285, -0.919189, -0.343750, 0.158691, 0.090543, 0.012126, 0.001411, 0.999894, -0.005457, -0.013372, 0.001571, 11.196983, -86.466812, 104.130404, , , 0.000000, , , 
09729, , 8.581446, 0.634680, 0.307920, -0.538658, -0.141290, -1.220543, -1.868073, -2.599332, 0.240019, -0.915039, -0.339600, 0.173340, 0.085758, 0.006485, 0.004134, 0.999871, -0.009340, -0.012996, 0.001200, 13.961273, -87.972624, 100.277948, , , 0.000000, , , 
09730, , 8.419840, 0.000838, 0.930543, 0.354685, -0.660597, -1.375066, -2.271845, -2.540037, 0.177959, -0.902832, -0.341797, 0.187988, 0.084071, 0.000197, 0.010372, 0.999854, -0.011359, -0.012700, 0.000890, 34.541843, -89.363070, 78.390484, , , 0.000000, , , 
09731, , 8.164275, -1.089290, 0.668863, 1.313181, -0.217440, -1.657128, -2.410686, -2.482464, 0.134453, -0.908936, -0.343750, 0.198242, 0.081558, -0.010748, 0.007831, 0.999850, -0.012053, -0.012412, 0.000672, 162.810042, -89.047544, -51.276082, , , 0.000000, , , 
09732, , 8.434622, -1.817816, 0.233280, 1.900721, 0.225960, -1.396449, -2.168879, -2.389598, 0.114158, -0.904785, -0.341797, 0.208740, 0.084319, -0.018096, 0.003537, 0.999870, -0.010844, -0.011947, 0.000571, 173.640927, -87.715501, -63.354649, , , 0.000000, , , 
09733, , 9.087786, -1.917447, 0.204770, 2.066651, 0.030030, -0.755667, -1.958131, -2.232311, 0.091418, -0.900635, -0.348145, 0.221191, 0.090855, -0.019105, 0.003249, 0.999890, -0.009790, -0.011161, 0.000457, 175.974130, -86.427413, -66.828278, , , 0.000000, , , 
09734, , 9.469556, -1.564320, 0.540726, 1.915809, -0.650929, -0.415165, -2.023137, -2.113028, 0.063681, -0.898438, -0.350342, 0.235840, 0.094635, -0.015551, 0.006565, 0.999893, -0.010115, -0.010565, 0.000318, 176.383704, -85.224427, -68.402150, , , 0.000000, , , 
09735, , 9.781485, -1.063808, 0.514382, 1.492553, -1.026150, -0.128213, -2.078108, -1.996391, 0.084601, -0.896240, -0.356445, 0.239990, 0.097761, -0.010536, 0.006230, 0.999896, -0.010390, -0.009982, 0.000423, 176.543849, -84.067093, -69.772888, , , 0.000000, , , 
09736, , 10.289093, -0.453760, 0.559105, 0.978337, -1.497143, 0.345167, -2.013365, -1.843496, 0.128228, -0.887695, -0.364746, 0.252441, 0.102836, -0.004409, 0.006584, 0.999907, -0.010067, -0.009217, 0.000641, 176.575325, -83.019774, -70.966508, , , 0.000000, , , 
09737, , 10.681674, -0.128729, 0.055775, 0.572946, -1.332786, 0.770832, -1.711687, -1.544859, 0.190851, -0.889893, -0.360596, 0.254639, 0.106809, -0.001176, 0.001393, 0.999933, -0.008558, -0.007724, 0.000954, 176.869927, -82.124725, -72.267081, , , 0.000000, , , 
09738, , 9.922805, 0.244662, -0.654493, 0.020834, -0.788849, 0.103277, -1.233608, -1.227010, 0.250449, -0.883789, -0.360840, 0.260742, 0.099263, 0.002533, -0.005951, 0.999961, -0.006168, -0.006135, 0.001252, 177.381005, -81.432400, -73.498645, , , 0.000000, , , 
09739, , 9.124873, 0.685426, -1.000215, -0.512391, -0.559013, -0.638935, -0.989402, -1.112799, 0.268568, -0.885742, -0.362793, 0.264893, 0.091293, 0.006929, -0.009528, 0.999971, -0.004947, -0.005564, 0.001343, 177.997510, -80.784724, -74.710989, , , 0.000000, , , 
09740, , 8.198997, 0.978594, -0.584906, -0.735888, -0.972726, -1.625199, -1.298317, -1.192069, 0.266205, -0.881592, -0.366943, 0.271240, 0.082010, 0.009859, -0.005424, 0.999960, -0.006492, -0.005960, 0.001331, 178.276097, -80.109692, -75.748900, , , 0.000000, , , 
09741, , 8.043898, 0.264034, -0.091334, 0.064798, -1.366360, -1.881094, -1.727214, -1.424387, 0.247216, -0.879395, -0.366943, 0.275391, 0.080440, 0.002735, -0.000364, 0.999937, -0.008636, -0.007122, 0.001236, 178.224626, -79.282003, -76.716957, , , 0.000000, , , 
09742, , 8.663586, -0.507761, -0.143704, 0.845825, -1.402000, -1.288998, -1.738111, -1.622328, 0.217140, -0.877197, -0.373291, 0.285645, 0.086649, -0.004992, -0.000691, 0.999929, -0.008690, -0.008111, 0.001086, 177.999695, -78.359725, -77.503899, , , 0.000000, , , 
09743, , 9.393283, -0.373632, -0.977845, 0.617122, -0.927591, -0.427282, -1.575577, -1.755008, 0.186887, -0.873047, -0.379639, 0.296143, 0.094017, -0.003721, -0.008924, 0.999930, -0.007878, -0.008775, 0.000934, 177.781771, -77.343527, -78.217864, , , 0.000000, , , 
09744, , 8.963558, 0.754405, -1.733260, -0.603105, -0.453844, -0.683226, -1.517346, -1.775762, 0.138732, -0.862793, -0.377441, 0.302490, 0.089780, 0.007479, -0.016593, 0.999932, -0.007587, -0.008879, 0.000694, 177.422641, -76.332920, -78.743004, , , 0.000000, , , 
09745, , 7.501310, 1.856672, -1.815464, -1.732281, -0.333328, -2.073195, -1.640326, -1.869921, 0.059980, -0.860596, -0.383789, 0.312744, 0.075174, 0.018443, -0.017604, 0.999923, -0.008201, -0.009349, 0.000300, 176.840812, -75.249851, -79.124750, , , 0.000000, , , 
09746, , 7.502364, 2.145739, -1.407161, -1.923433, -0.873698, -2.170328, -1.803584, -1.992865, -0.051323, -0.851807, -0.394287, 0.321045, 0.075166, 0.021315, -0.013516, 0.999910, -0.009018, -0.009964, -0.000257, 175.952181, -74.110990, -79.276014, , , 0.000000, , , 
09747, , 9.148224, 1.321714, -0.353868, -0.865313, -2.356554, -0.909993, -1.840192, -1.968836, -0.187348, -0.849609, -0.400391, 0.335449, 0.091524, 0.013104, -0.002759, 0.999909, -0.009201, -0.009844, -0.000937, 174.846609, -72.963817, -79.234734, , , 0.000000, , , 
09748, , 9.927943, -0.204087, 0.263704, 0.789280, -3.171362, -0.432282, -1.722050, -1.775044, -0.289302, -0.834961, -0.412842, 0.331055, 0.099248, -0.002157, 0.003536, 0.999923, -0.008610, -0.008875, -0.001446, 173.651509, -71.937743, -79.017346, , , 0.000000, , , 
09749, , 10.437128, -1.820069, 0.527011, 2.487320, -3.616042, -0.155672, -1.659666, -1.669192, -0.381554, -0.832764, -0.417236, 0.339355, 0.104287, -0.018350, 0.006293, 0.999929, -0.008298, -0.008346, -0.001908, 172.402197, -70.949748, -78.713318, , , 0.000000, , , 
09750, , 12.146115, -3.745141, -0.339108, 4.524992, -3.411562, 1.569298, -1.953884, -1.413675, -0.438613, -0.821777, -0.433838, 0.341309, 0.121397, -0.037743, -0.002165, 0.999925, -0.009769, -0.007068, -0.002193, 170.903324, -70.114178, -78.312182, , , 0.000000, , , 
09751, , 11.385749, -5.691597, -2.256276, 6.443273, -1.474875, 1.296908, -1.690726, -1.334110, -0.660354, -0.821533, -0.444092, 0.343262, 0.113813, -0.057476, -0.021319, 0.999937, -0.008453, -0.006670, -0.003302, 169.287985, -69.286869, -77.632580, , , 0.000000, , , 
09752, , 11.479193, -5.559552, -2.708314, 6.426381, -1.303111, 1.457355, -1.420696, -1.252618, -0.610816, -0.815186, -0.446289, 0.355713, 0.114786, -0.056133, -0.025967, 0.999950, -0.007103, -0.006263, -0.003054, 167.943650, -68.516354, -77.065411, , , 0.000000, , , 
09753, , 12.816148, -3.740909, -2.532803, 4.824710, -2.201094, 2.698752, -0.952816, -1.346027, -0.555945, -0.804443, -0.462891, 0.359619, 0.128222, -0.037883, -0.024285, 0.999962, -0.004764, -0.006730, -0.002780, 167.053733, -67.686588, -76.702558, , , 0.000000, , , 
09754, , 13.116918, -4.148051, -0.594941, 5.318255, -4.288575, 2.142831, -1.091420, -1.153510, -0.510201, -0.802246, -0.464844, 0.363770, 0.131093, -0.041844, -0.004965, 0.999965, -0.005457, -0.005767, -0.002551, 166.106931, -66.977915, -76.355473, , , 0.000000, , , 
09755, , 14.294871, -4.302058, 0.233347, 5.623363, -5.649532, 2.811261, -0.172979, -0.916961, -0.457850, -0.793945, -0.473389, 0.367920, 0.142837, -0.043345, 0.003026, 0.999986, -0.000865, -0.004585, -0.002289, 165.731425, -66.398797, -76.059256, , , 0.000000, , , 
09756, , 16.631179, -3.665039, 1.270056, 5.252543, -7.625742, 4.536494, -0.155471, -0.629868, -0.450602, -0.789795, -0.473389, 0.374268, 0.166188, -0.037015, 0.013253, 0.999992, -0.000777, -0.003149, -0.002253, 165.272978, -65.986741, -75.656837, , , 0.000000, , , 
09757, , 19.367033, -4.944929, 1.589743, 6.859437, -9.048098, 6.714285, -0.580919, -0.156616, -0.447020, -0.789551, -0.481689, 0.363525, 0.193547, -0.049835, 0.016193, 0.999993, -0.002905, -0.000783, -0.002235, 164.459962, -65.832216, -75.130954, , , 0.000000, , , 
09758, , 20.353451, -5.851749, 2.140688, 7.918750, -9.903244, 7.284279, -0.235060, 0.603671, -0.364911, -0.789551, -0.479492, 0.363770, 0.203491, -0.058864, 0.020862, 0.999993, -0.001175, 0.003018, -0.001825, 163.653630, -66.109265, -74.396888, , , 0.000000, , , 
09759, , 19.290960, -4.299768, 3.016408, 6.299245, -10.126446, 6.233953, 0.476370, 1.440036, -0.229586, -0.799805, -0.479492, 0.355225, 0.193070, -0.043289, 0.028671, 0.999971, 0.002382, 0.007200, -0.001148, 163.119605, -66.868084, -73.511984, , , 0.000000, , , 
09760, , 18.340347, -1.854943, 2.648173, 3.841947, -9.150092, 5.945565, 0.883343, 2.169312, -0.115549, -0.797852, -0.475342, 0.342773, 0.183665, -0.018766, 0.024408, 0.999931, 0.004417, 0.010846, -0.000578, 162.582403, -68.038122, -72.383666, , , 0.000000, , , 
09761, , 17.969227, 0.929799, 2.001204, 1.090792, -8.052954, 6.364396, 1.172119, 3.058078, -0.003259, -0.803955, -0.473145, 0.322021, 0.179971, 0.009188, 0.017316, 0.999866, 0.005860, 0.015290, -0.000016, 161.893561, -69.717912, -70.912547, , , 0.000000, , , 
09762, , 15.920910, 3.575533, 2.250703, -1.732436, -7.196367, 4.901445, 1.220262, 4.039851, -0.029313, -0.824951, -0.464600, 0.292725, 0.159629, 0.035607, 0.019503, 0.999777, 0.006101, 0.020198, -0.000147, 160.387081, -71.905070, -68.578793, , , 0.000000, , , 
09763, , 13.533153, 5.205312, 1.093702, -3.601416, -4.953195, 3.374775, 1.709742, 4.598830, -0.206796, -0.837158, -0.464600, 0.269775, 0.135596, 0.051835, 0.008265, 0.999699, 0.008548, 0.022992, -0.001034, 157.933293, -74.342857, -64.975030, , , 0.000000, , , 
09764, , 12.698478, 5.825005, -1.882972, -4.427970, -1.422058, 3.494439, 2.412505, 4.796868, -0.206381, -0.845703, -0.458252, 0.238525, 0.126556, 0.058365, -0.021165, 0.999639, 0.012061, 0.023981, -0.001032, 154.575869, -76.814644, -60.083424, , , 0.000000, , , 
09765, , 13.186991, 6.312405, -4.781752, -5.148175, 1.774775, 4.572306, 1.517160, 4.633170, 0.032157, -0.857910, -0.455811, 0.209229, 0.130712, 0.063521, -0.050374, 0.999703, 0.007585, 0.023164, 0.000161, 149.685067, -79.190278, -54.176627, , , 0.000000, , , 
09766, , 15.145229, 4.800824, -6.145444, -3.685509, 3.587432, 6.426038, -0.005085, 4.393290, 0.203760, -0.859863, -0.457764, 0.171631, 0.150005, 0.048160, -0.064762, 0.999758, -0.000025, 0.021965, 0.001019, 141.975222, -81.344411, -46.360082, , , 0.000000, , , 
09767, , 17.424236, 3.012791, -6.238609, -1.841280, 4.338739, 8.334853, 0.170867, 4.285739, 0.425654, -0.870361, -0.449463, 0.138184, 0.172788, 0.030552, -0.066073, 0.999768, 0.000854, 0.021427, 0.002128, 130.750806, -83.313390, -34.920300, , , 0.000000, , , 
09768, , 18.925332, 2.836999, -5.035357, -1.622103, 3.820038, 9.533930, 0.787228, 4.201830, 0.596816, -0.878662, -0.447266, 0.098633, 0.188055, 0.029141, -0.054199, 0.999767, 0.003936, 0.021008, 0.002984, 113.045665, -84.895323, -16.672015, , , 0.000000, , , 
09769, , 20.107617, 2.433221, -3.771336, -1.239077, 3.356418, 10.475248, 0.454946, 4.073561, 0.656258, -0.882568, -0.445068, 0.067383, 0.200172, 0.025082, -0.041740, 0.999785, 0.002275, 0.020366, 0.003281, 85.739142, -85.677489, 10.999095, , , 0.000000, , , 
09770, , 20.722496, 1.613803, -3.204218, -0.569497, 3.700713, 10.880560, -0.042156, 4.077892, 0.716359, -0.888916, -0.438721, 0.025635, 0.206455, 0.016871, -0.036261, 0.999786, -0.000211, 0.020388, 0.003582, 55.747607, -85.277815, 41.054481, , , 0.000000, , , 
09771, , 19.723515, 0.851818, -3.059867, -0.118054, 4.400832, 9.672268, -0.133534, 4.197386, 0.779932, -0.891113, -0.430176, -0.013916, 0.196500, 0.009263, -0.034734, 0.999772, -0.000668, 0.020985, 0.003899, 34.222296, -83.865080, 62.607438, , , 0.000000, , , 
09772, , 17.601823, 0.802112, -3.408145, -0.467577, 5.298413, 7.326180, 0.011477, 4.246039, 0.871109, -0.895264, -0.426025, -0.051514, 0.175205, 0.008788, -0.037807, 0.999765, 0.000057, 0.021229, 0.004355, 21.532592, -81.932629, 75.398064, , , 0.000000, , , 
09773, , 15.649412, 1.136689, -3.674359, -1.152056, 5.904249, 5.136229, 0.106948, 4.155686, 1.015214, -0.895264, -0.417725, -0.082764, 0.155625, 0.012179, -0.039977, 0.999771, 0.000535, 0.020777, 0.005076, 13.606412, -79.828464, 83.492529, , , 0.000000, , , 
09774, , 14.271524, 1.043193, -3.897067, -1.358509, 6.442963, 3.474968, 0.141259, 4.067512, 1.138383, -0.893555, -0.405273, -0.114014, 0.141821, 0.011270, -0.041853, 0.999777, 0.000706, 0.020336, 0.005691, 8.253721, -77.658358, 89.030395, , , 0.000000, , , 
09775, , 13.135392, 0.438306, -3.858300, -0.996581, 6.722998, 2.078337, 0.279239, 4.118086, 1.171170, -0.891602, -0.398926, -0.151367, 0.130494, 0.005205, -0.041269, 0.999770, 0.001396, 0.020589, 0.005855, 4.512073, -75.386426, 93.048983, , , 0.000000, , , 
09776, , 12.046168, -0.748941, -3.318029, 0.042245, 6.530320, 0.864786, 0.424627, 4.211044, 1.148295, -0.887451, -0.392578, -0.193115, 0.119767, -0.006726, -0.035722, 0.999760, 0.002123, 0.021054, 0.005741, 1.958343, -73.011116, 95.954002, , , 0.000000, , , 
09777, , 9.530670, -1.198337, -2.688557, 0.451440, 5.651156, -1.606471, 0.884995, 4.269941, 1.046811, -0.881348, -0.386230, -0.220215, 0.094764, -0.011361, -0.028964, 0.999749, 0.004425, 0.021348, 0.005234, 0.469778, -70.578908, 98.055442, , , 0.000000, , , 
09778, , 7.882256, 0.200456, -2.056709, -0.927919, 4.609353, -3.158150, 1.627799, 4.113735, 0.932810, -0.873047, -0.384277, -0.251465, 0.078367, 0.002547, -0.022163, 0.999744, 0.008138, 0.020567, 0.004664, -0.038581, -68.221085, 99.593450, , , 0.000000, , , 
09779, , 6.616838, 1.867277, -1.094486, -2.470279, 3.198958, -4.144659, 1.468647, 3.861573, 0.816562, -0.870850, -0.380127, -0.274414, 0.065865, 0.019028, -0.012080, 0.999778, 0.007343, 0.019306, 0.004083, -0.298237, -66.011671, 100.787876, , , 0.000000, , , 
09780, , 5.326315, 1.601642, -1.814621, -2.321714, 3.521970, -5.759323, 0.932667, 3.566406, 0.792788, -0.856445, -0.373779, -0.299316, 0.052865, 0.016314, -0.019016, 0.999822, 0.004663, 0.017831, 0.003964, -0.695877, -63.961697, 101.814955, , , 0.000000, , , 
09781, , 4.279338, 0.466759, -2.707788, -1.347915, 4.168523, -7.230710, 1.221321, 3.334257, 0.734992, -0.848145, -0.375977, -0.326416, 0.042316, 0.004992, -0.027756, 0.999836, 0.006106, 0.016670, 0.003675, -0.782207, -62.054801, 102.695799, , , 0.000000, , , 
09782, , 2.830044, 0.283959, -2.474844, -1.048667, 3.385364, -8.527023, 1.684310, 3.014356, 0.595049, -0.845947, -0.379883, -0.339111, 0.027914, 0.003134, -0.025146, 0.999847, 0.008421, 0.015071, 0.002975, -0.401713, -60.321643, 103.361594, , , 0.000000, , , 
09783, , 1.867734, 0.822349, -1.714296, -1.366123, 2.164806, -9.070794, 1.668229, 2.602068, 0.456138, -0.833252, -0.379883, -0.362061, 0.018434, 0.008410, -0.017314, 0.999878, 0.008341, 0.013010, 0.002281, 0.115075, -58.840053, 103.869509, , , 0.000000, , , 
09784, , 0.985714, 0.891183, -1.677789, -1.345561, 1.663794, -9.855950, 1.339056, 2.199423, 0.346635, -0.826904, -0.390381, -0.368408, 0.009657, 0.009041, -0.016825, 0.999916, 0.006695, 0.010997, 0.001733, 0.552347, -57.578414, 104.256333, , , 0.000000, , , 
09785, , 0.096068, 0.714677, -2.004612, -1.146810, 1.488429, -10.816531, 1.087935, 1.804824, 0.256456, -0.822754, -0.386230, -0.376709, 0.000771, 0.007257, -0.020014, 0.999944, 0.005440, 0.009024, 0.001282, 0.933381, -56.554844, 104.544215, , , 0.000000, , , 
09786, , -0.182032, 0.369628, -2.559342, -0.916182, 1.846094, -11.385067, 0.953747, 1.403976, 0.200042, -0.814453, -0.388428, -0.385010, -0.002004, 0.003816, -0.025562, 0.999963, 0.004769, 0.007020, 0.001000, 1.287735, -55.750137, 104.774130, , , 0.000000, , , 
09787, , -0.001291, 0.383006, -2.651611, -0.996283, 1.984934, -11.311036, 1.111603, 1.091576, 0.154806, -0.812012, -0.394531, -0.389404, -0.000161, 0.003977, -0.026494, 0.999969, 0.005558, 0.005458, 0.000774, 1.773860, -55.140182, 104.955835, , , 0.000000, , , 
09788, , -0.168610, 0.503653, -2.714681, -1.127535, 1.879994, -11.499618, 1.248525, 0.803121, 0.095632, -0.811768, -0.404785, -0.387451, -0.001797, 0.005205, -0.027108, 0.999972, 0.006243, 0.004016, 0.000478, 2.389308, -54.679644, 105.076533, , , 0.000000, , , 
09789, , 0.192436, 0.487790, -2.950764, -1.257606, 2.243367, -11.351374, 1.367247, 0.478472, 0.082863, -0.809570, -0.406982, -0.383301, 0.001852, 0.005080, -0.029478, 0.999974, 0.006836, 0.002392, 0.000414, 3.099121, -54.421277, 105.173394, , , 0.000000, , , 
09790, , 0.400441, 0.636401, -3.101910, -1.508032, 2.407211, -11.268092, 1.446448, 0.169299, 0.039860, -0.809814, -0.404785, -0.379150, 0.003977, 0.006589, -0.030975, 0.999973, 0.007232, 0.000846, 0.000199, 3.889540, -54.323132, 105.219183, , , 0.000000, , , 
09791, , 0.535633, 0.772897, -3.177375, -1.720893, 2.475162, -11.188140, 1.543835, -0.142021, -0.012846, -0.813721, -0.413086, -0.370850, 0.005379, 0.007974, -0.031709, 0.999970, 0.007719, -0.000710, -0.000064, 4.798445, -54.421965, 105.191744, , , 0.000000, , , 
09792, , 0.514927, 1.160925, -3.040159, -2.086715, 2.209139, -11.085685, 1.642669, -0.517004, -0.069348, -0.811279, -0.425537, -0.362793, 0.005232, 0.011857, -0.030291, 0.999963, 0.008213, -0.002585, -0.000347, 5.835459, -54.710472, 105.072783, , , 0.000000, , , 
09793, , 0.740680, 1.789314, -2.519213, -2.584742, 1.703572, -10.529194, 1.488473, -0.904330, -0.094973, -0.817627, -0.425537, -0.343994, 0.007529, 0.018076, -0.025024, 0.999962, 0.007442, -0.004522, -0.000475, 6.853562, -55.238175, 104.873897, , , 0.000000, , , 
09794, , 1.224415, 2.242076, -1.040469, -2.611370, 0.667520, -9.226432, 0.958499, -1.281179, -0.059129, -0.817627, -0.425781, -0.329346, 0.012317, 0.022466, -0.010218, 0.999968, 0.004792, -0.006406, -0.000296, 7.588249, -55.959362, 104.647778, , , 0.000000, , , 
09795, , 2.437831, 1.781911, 0.544521, -1.813052, 0.249695, -7.349956, 0.286644, -1.647783, 0.025448, -0.825928, -0.427734, -0.314697, 0.024330, 0.017814, 0.005671, 0.999965, 0.001433, -0.008239, 0.000127, 7.922191, -56.920105, 104.442055, , , 0.000000, , , 
09796, , 3.372531, 0.998936, 1.909646, -0.727855, -0.079522, -5.877963, -0.181110, -1.889435, 0.060600, -0.830078, -0.423584, -0.306396, 0.033540, 0.010017, 0.019405, 0.999955, -0.000906, -0.009447, 0.000303, 8.001345, -57.994269, 104.223803, , , 0.000000, , , 
09797, , 5.833432, 0.197257, 3.644907, 0.312163, 0.003501, -2.938557, -0.482122, -2.237104, 0.285316, -0.836426, -0.421631, -0.285400, 0.057919, 0.002144, 0.037093, 0.999934, -0.002411, -0.011185, 0.001427, 7.740920, -59.307087, 104.198083, , , 0.000000, , , 
09798, , 9.109311, -0.265922, 6.597586, 1.354331, -0.765252, 1.329683, -0.619439, -2.297691, 0.457739, -0.844971, -0.415283, -0.270752, 0.090333, -0.002245, 0.067024, 0.999927, -0.003097, -0.011488, 0.002289, 7.235054, -60.643790, 104.371160, , , 0.000000, , , 
09799, , 11.629196, -0.448044, 11.203149, 2.807857, -3.511811, 5.702593, 0.026364, -1.992921, 0.379723, -0.849365, -0.413330, -0.247559, 0.115176, -0.004276, 0.113182, 0.999949, 0.000132, -0.009964, 0.001899, 7.110873, -61.822440, 104.523847, , , 0.000000, , , 
09800, , 15.507335, 1.050987, 15.075119, 2.413807, -5.725754, 10.929009, 1.019746, -1.660632, 0.205258, -0.857910, -0.409180, -0.232910, 0.153804, 0.009895, 0.152083, 0.999952, 0.005099, -0.008303, 0.001026, 7.709226, -62.778436, 104.506740, , , 0.000000, , , 
09801, , 20.944779, 2.502933, 19.276522, 2.157384, -7.607134, 17.646276, 0.562591, -1.409497, -0.055765, -0.857666, -0.415527, -0.220459, 0.208089, 0.024426, 0.194304, 0.999971, 0.002813, -0.007047, -0.000279, 8.307505, -63.592057, 104.191195, , , 0.000000, , , 
09802, , 21.644436, 1.335412, 19.792055, 3.551138, -7.555819, 18.334854, 0.058856, -0.819206, -0.313683, -0.857910, -0.407227, -0.212158, 0.215652, 0.012957, 0.198809, 0.999990, 0.000294, -0.004096, -0.001568, 8.847460, -64.026681, 103.625837, , , 0.000000, , , 
09803, , 17.762447, 2.080678, 15.572682, 1.880857, -6.118734, 13.020711, 0.194733, -0.428732, -0.349046, -0.857666, -0.419678, -0.210205, 0.177326, 0.020345, 0.156127, 0.999996, 0.000974, -0.002144, -0.001745, 9.427744, -64.248601, 103.092550, , , 0.000000, , , 
09804, , 14.393730, 3.122279, 10.970632, -0.354944, -4.178105, 8.067466, -0.419940, -0.446387, -0.133874, -0.857666, -0.415527, -0.203857, 0.143713, 0.031357, 0.109961, 0.999995, -0.002100, -0.002232, -0.000669, 9.434723, -64.485642, 102.816715, , , 0.000000, , , 
09805, , 11.349337, 3.003600, 7.098384, -1.354685, -2.245171, 3.653567, -0.330455, -0.181427, 0.129711, -0.851562, -0.415527, -0.205811, 0.113409, 0.030227, 0.071037, 0.999998, -0.001652, -0.000907, 0.000649, 9.113184, -64.607573, 102.957209, , , 0.000000, , , 
09806, , 7.989498, 1.623245, 3.829811, -0.927049, -0.438116, -0.863773, 0.882214, 0.280600, 0.546053, -0.859863, -0.415527, -0.203857, 0.079904, 0.016282, 0.038258, 0.999986, 0.004411, 0.001403, 0.002730, 8.918969, -64.495154, 103.730850, , , 0.000000, , , 
09807, , 8.001037, 2.274355, 2.982391, -1.838339, 0.016705, -1.169534, 2.258861, 0.303324, 0.821014, -0.860107, -0.409180, -0.197510, 0.079962, 0.022734, 0.029959, 0.999927, 0.011294, 0.001517, 0.004105, 9.180753, -64.401669, 104.874954, , , 0.000000, , , 
09808, , 12.460070, 4.491251, 1.800142, -4.820108, 1.914615, 2.506612, 2.686307, 0.323683, 0.833947, -0.866211, -0.409180, -0.187012, 0.124442, 0.045186, 0.018406, 0.999900, 0.013431, 0.001618, 0.004170, 9.677646, -64.294335, 106.029932, , , 0.000000, , , 
09809, , 18.050453, 4.857258, -0.411695, -6.787754, 5.738673, 6.636376, 0.465282, -0.405023, 0.985342, -0.876953, -0.396729, -0.180664, 0.180270, 0.049470, -0.003637, 0.999983, 0.002326, -0.002025, 0.004927, 8.847804, -64.621964, 107.242152, , , 0.000000, , , 
09810, , 25.124820, -2.394759, -2.040550, -1.878160, 12.746959, 11.984659, -2.306508, -1.467404, 0.981958, -0.873291, -0.382324, -0.180420, 0.251502, -0.022932, -0.018292, 0.999895, -0.011532, -0.007337, 0.004910, 6.571998, -65.528032, 108.293134, , , 0.000000, , , 
09811, , 28.591813, -12.568721, -2.135907, 6.980954, 17.856022, 14.934248, -2.711609, -1.326653, 0.511117, -0.877686, -0.375977, -0.180420, 0.286364, -0.125213, -0.017761, 0.999883, -0.013558, -0.006633, 0.002555, 4.500510, -66.328983, 108.842392, , , 0.000000, , , 
09812, , 23.074903, -9.445699, 0.807607, 5.960081, 11.865795, 11.306051, 2.251713, 0.009429, 0.059494, -0.877441, -0.384521, -0.169922, 0.230777, -0.094471, 0.007002, 0.999937, 0.011258, 0.000047, 0.000297, 5.715308, -66.324174, 108.923403, , , 0.000000, , , 
09813, , 9.251821, -0.969494, 1.229738, 0.144374, 2.997461, -0.922345, 4.967213, 1.874845, -0.106152, -0.875000, -0.396729, -0.167969, 0.092621, -0.010031, 0.011183, 0.999648, 0.024833, 0.009373, -0.000531, 8.383035, -65.266575, 109.101608, , , 0.000000, , , 
09814, , -1.873506, 1.975137, -8.409670, -5.265309, 4.970221, -14.881696, 4.218937, 1.119496, -0.221574, -0.874756, -0.403076, -0.161865, -0.019181, 0.021539, -0.083548, 0.999761, 0.021093, 0.005597, -0.001108, 10.841438, -64.610432, 109.054951, , , 0.000000, , , 
09815, , -16.997963, 11.894969, -12.294598, -13.785852, -3.067651, -29.360506, 0.660476, -0.341082, -0.004763, -0.881348, -0.396973, -0.140869, -0.169767, 0.119360, -0.122842, 0.999993, 0.003302, -0.001705, -0.000024, 11.298895, -64.818400, 108.955184, , , 0.000000, , , 
09816, , -8.391876, 6.754919, -5.815549, -7.486731, -1.928470, -19.304055, -0.789978, -4.019058, 1.740836, -0.896484, -0.380371, -0.107178, -0.083306, 0.066587, -0.060098, 0.999752, -0.003950, -0.020094, 0.008703, 9.580181, -67.261351, 110.338983, , , 0.000000, , , 
09817, , 1.669660, -0.950255, -4.192053, -1.347997, 4.409431, -9.826961, -1.803428, -4.047278, 1.808043, -0.905518, -0.357666, -0.083984, 0.017626, -0.009721, -0.041483, 0.999714, -0.009016, -0.020234, 0.009039, 6.743231, -69.746843, 112.264314, , , 0.000000, , , 
09818, , 16.321303, -6.699678, -1.242474, 3.227521, 9.070965, 5.021390, -3.741692, -3.551161, 1.849198, -0.914307, -0.343018, -0.062744, 0.163996, -0.065664, -0.008280, 0.999625, -0.018706, -0.017754, 0.009245, 2.015412, -71.854629, 114.998415, , , 0.000000, , , 
09819, , 20.488329, -11.530510, -2.930755, 6.414377, 13.181462, 8.798576, -0.808598, -2.798385, 0.525489, -0.916748, -0.328613, -0.033447, 0.205564, -0.114875, -0.025969, 0.999890, -0.004043, -0.013991, 0.002627, 0.630402, -73.502503, 115.939815, , , 0.000000, , , 
09820, , 18.463195, -4.807537, -2.486066, 0.966422, 8.849880, 7.243663, 2.143779, -2.248643, 0.171560, -0.918701, -0.336914, -0.006348, 0.184941, -0.047662, -0.023295, 0.999879, 0.010718, -0.011243, 0.000858, 1.607052, -74.790423, 116.200181, , , 0.000000, , , 
09821, , 12.498469, 1.926574, -0.776205, -3.441044, 2.595662, 2.101272, 1.142397, -1.820291, -0.178644, -0.912598, -0.334961, 0.010498, 0.125065, 0.019194, -0.006514, 0.999942, 0.005712, -0.009101, -0.000893, 2.703317, -75.873754, 115.721183, , , 0.000000, , , 
09822, , 8.240242, 2.971449, 1.386529, -2.822008, -0.846621, -1.447796, -0.714079, -1.910027, 0.125823, -0.921143, -0.328857, 0.025146, 0.082247, 0.029817, 0.014545, 0.999948, -0.003570, -0.009550, 0.000629, 2.196273, -76.968131, 115.820595, , , 0.000000, , , 
09823, , 6.053953, 2.099652, 3.438895, -0.871562, -2.785342, -3.151961, -1.257685, -2.230640, 0.288771, -0.916992, -0.331055, 0.043945, 0.060121, 0.021302, 0.034928, 0.999917, -0.006288, -0.011153, 0.001444, 0.783739, -78.282358, 116.508511, , , 0.000000, , , 
09824, , 5.607171, 1.817532, 3.005115, -0.775337, -2.500977, -3.736799, -1.404826, -2.483169, 0.474331, -0.919434, -0.322754, 0.054443, 0.055650, 0.018521, 0.030615, 0.999895, -0.007024, -0.012415, 0.002372, -1.452199, -79.701687, 117.964890, , , 0.000000, , , 
